,accuracy,better_option_left,block_number,choice_key,reference_IV,reward_IV,rt,running_score_block,running_score_experiment,trial,trial_block,reference_block,reward_trial_better_option,reward_trial_worse_option
0,,True,1,,--,-,3.00323009491,-112.3,913.7,1,1,-111.0,-1.3,-1.1
1,,True,1,,--,-,3.00327587128,-113.2,912.8,2,2,-111.0,-0.9,-0.9
2,,True,1,,--,-,3.00323820114,-114.0,912.0,3,3,-111.0,-0.8,-0.8
3,,True,1,,--,-,3.00320601463,-115.3,910.7,4,4,-111.0,-1.1,-1.3
4,,True,1,,--,-,3.00328302383,-116.6,909.4,5,5,-111.0,-1.3,-0.9
5,,True,1,,--,-,3.00324320793,-117.8,908.2,6,6,-111.0,-1.1,-1.2
6,,True,1,,--,-,3.00327706337,-119.2,906.8,7,7,-111.0,-0.6,-1.4
7,,True,1,,--,-,3.00323987007,-120.2,905.8,8,8,-111.0,-1.0,-0.9
8,,True,1,,--,-,3.00311899185,-121.3,904.7,9,9,-111.0,-1.1,-0.9
9,,True,1,,--,-,3.00339198112,-122.4,903.6,10,10,-111.0,-0.8,-1.1
10,,True,1,,--,-,3.00320696831,-123.6,902.4,11,11,-111.0,-0.9,-1.2
11,,True,1,,--,-,3.00319600105,-124.5,901.5,12,12,-111.0,-0.9,-0.9
12,,True,1,,--,-,3.00318717957,-125.2,900.8,13,13,-111.0,-0.7,-0.7
13,0.0,True,1,p,--,-,2.87038111687,-126.1,899.9,14,14,-111.0,-0.8,-0.9
14,1.0,True,1,q,--,-,0.501160144806,-126.6,899.4,15,15,-111.0,-0.5,-1.3
15,0.0,True,1,p,--,-,0.402013063431,-127.7,898.3,16,16,-111.0,-0.8,-1.1
16,1.0,True,1,q,--,-,1.05200600624,-128.5,897.5,17,17,-111.0,-0.8,-1.1
17,0.0,True,1,p,--,-,1.90270400047,-129.7,896.3,18,18,-111.0,-0.8,-1.2
18,1.0,True,1,q,--,-,0.618116855621,-130.6,895.4,19,19,-111.0,-0.9,-1.3
19,1.0,True,1,q,--,-,0.918680906296,-131.3,894.7,20,20,-111.0,-0.7,-1.3
20,0.0,True,2,p,-,+,0.851417064667,-19.6,875.1,21,1,-20.4,0.8,0.8
21,0.0,True,2,p,-,+,0.534660100937,-18.7,876.0,22,2,-20.4,1.1,0.9
22,0.0,True,2,p,-,+,0.351196050644,-17.8,876.9,23,3,-20.4,1.3,0.9
23,0.0,True,2,p,-,+,0.267560958862,-17.0,877.7,24,4,-20.4,1.2,0.8
24,0.0,True,2,p,-,+,0.501219987869,-16.2,878.5,25,5,-20.4,0.8,0.8
25,0.0,True,2,p,-,+,0.88502407074,-15.4,879.3,26,6,-20.4,1.3,0.8
26,1.0,True,2,q,-,+,0.751533985138,-14.3,880.4,27,7,-20.4,1.1,1.2
27,0.0,True,2,p,-,+,1.2021818161,-13.5,881.2,28,8,-20.4,1.1,0.8
28,1.0,True,2,q,-,+,0.51789689064,-12.4,882.3,29,9,-20.4,1.1,1.3
29,1.0,True,2,q,-,+,0.584937095642,-11.6,883.1,30,10,-20.4,0.8,0.7
30,0.0,True,2,p,-,+,0.301069974899,-10.5,884.2,31,11,-20.4,1.1,1.1
31,1.0,True,2,q,-,+,0.284369945526,-9.5,885.2,32,12,-20.4,1.0,0.7
32,0.0,True,2,p,-,+,0.434537887573,-8.6,886.1,33,13,-20.4,0.8,0.9
33,1.0,True,2,q,-,+,0.267611980438,-7.6,887.1,34,14,-20.4,1.0,0.7
34,0.0,True,2,p,-,+,0.617836952209,-6.6,888.1,35,15,-20.4,1.0,1.0
35,1.0,True,2,q,-,+,0.467926025391,-5.5,889.2,36,16,-20.4,1.1,0.9
36,0.0,True,2,p,-,+,0.284349918365,-4.4,890.3,37,17,-20.4,1.0,1.1
37,1.0,True,2,q,-,+,0.301024913788,-3.4,891.3,38,18,-20.4,1.0,0.8
38,0.0,True,2,p,-,+,0.300867795944,-2.6,892.1,39,19,-20.4,1.0,0.8
39,1.0,True,2,q,-,+,0.350924015045,-1.3,893.4,40,20,-20.4,1.3,0.9
40,0.0,True,3,p,--,+,0.718027830124,-109.7,783.7,41,1,-111.0,1.0,1.3
41,0.0,True,3,p,--,+,0.484654903412,-108.7,784.7,42,2,-111.0,1.3,1.0
42,0.0,True,3,p,--,+,0.367704868317,-107.7,785.7,43,3,-111.0,1.4,1.0
43,1.0,True,3,q,--,+,0.417732000351,-106.6,786.8,44,4,-111.0,1.1,0.9
44,1.0,True,3,q,--,+,0.234357833862,-105.7,787.7,45,5,-111.0,0.9,0.5
45,1.0,True,3,q,--,+,0.651338100433,-104.3,789.1,46,6,-111.0,1.4,0.9
46,1.0,True,3,q,--,+,0.53463602066,-103.4,790.0,47,7,-111.0,0.9,1.1
47,1.0,True,3,q,--,+,0.284418106079,-102.3,791.1,48,8,-111.0,1.1,1.1
48,1.0,True,3,q,--,+,0.36777806282,-101.2,792.2,49,9,-111.0,1.1,1.1
49,1.0,True,3,q,--,+,0.234243154526,-99.8,793.6,50,10,-111.0,1.4,1.2
50,1.0,True,3,q,--,+,0.667981863022,-98.7,794.7,51,11,-111.0,1.1,0.6
51,1.0,True,3,q,--,+,0.401034832001,-97.4,796.0,52,12,-111.0,1.3,1.0
52,1.0,True,3,q,--,+,0.251085042953,-96.1,797.3,53,13,-111.0,1.3,1.2
53,1.0,True,3,q,--,+,0.484580039978,-95.3,798.1,54,14,-111.0,0.8,0.8
54,1.0,True,3,q,--,+,0.0673568248749,-94.4,799.0,55,15,-111.0,0.9,0.7
55,1.0,True,3,q,--,+,0.284253120422,-93.5,799.9,56,16,-111.0,0.9,0.9
56,1.0,True,3,q,--,+,0.300966024399,-92.4,801.0,57,17,-111.0,1.1,1.1
57,1.0,True,3,q,--,+,0.284223794937,-91.3,802.1,58,18,-111.0,1.1,0.7
58,1.0,True,3,q,--,+,0.217538118362,-90.2,803.2,59,19,-111.0,1.1,1.0
59,1.0,True,3,q,--,+,0.250956058502,-89.4,804.0,60,20,-111.0,0.8,0.7
60,1.0,False,4,p,+,+,1.73588299751,20.6,824.6,61,1,19.5,1.1,0.8
61,1.0,False,4,p,+,+,0.801789045334,21.9,825.9,62,2,19.5,1.3,0.7
62,1.0,False,4,p,+,+,0.551491975784,22.8,826.8,63,3,19.5,0.9,1.1
63,1.0,False,4,p,+,+,0.501371860504,23.7,827.7,64,4,19.5,0.9,0.8
64,1.0,False,4,p,+,+,1.8028318882,24.9,828.9,65,5,19.5,1.2,1.2
65,1.0,False,4,p,+,+,0.384359836578,25.8,829.8,66,6,19.5,0.9,0.8
66,1.0,False,4,p,+,+,0.267604112625,26.8,830.8,67,7,19.5,1.0,1.0
67,1.0,False,4,p,+,+,0.0340809822083,27.7,831.7,68,8,19.5,0.9,1.2
68,1.0,False,4,p,+,+,0.818302154541,28.9,832.9,69,9,19.5,1.2,1.0
69,1.0,False,4,p,+,+,0.250847101212,30.3,834.3,70,10,19.5,1.4,0.9
70,0.0,False,4,q,+,+,0.251965999603,31.1,835.1,71,11,19.5,1.0,0.8
71,1.0,False,4,p,+,+,0.20086812973,32.0,836.0,72,12,19.5,0.9,0.9
72,1.0,False,4,p,+,+,0.367759943008,33.0,837.0,73,13,19.5,1.0,1.1
73,1.0,False,4,p,+,+,0.251073122025,34.2,838.2,74,14,19.5,1.2,1.4
74,0.0,False,4,q,+,+,0.251063108444,35.0,839.0,75,15,19.5,1.3,0.8
75,1.0,False,4,p,+,+,0.0340030193329,36.2,840.2,76,16,19.5,1.2,1.3
76,1.0,False,4,p,+,+,0.40115404129,37.5,841.5,77,17,19.5,1.3,1.0
77,1.0,False,4,p,+,+,0.467871904373,38.4,842.4,78,18,19.5,0.9,1.3
78,0.0,False,4,q,+,+,0.601219892502,39.1,843.1,79,19,19.5,1.1,0.7
79,1.0,False,4,p,+,+,0.0506980419159,40.5,844.5,80,20,19.5,1.4,0.8
80,1.0,True,5,q,-,--,2.23626208305,-21.6,822.9,81,1,-17.9,-3.7,-4.3
81,1.0,True,5,q,-,--,0.951684951782,-25.6,818.9,82,2,-17.9,-4.0,-7.0
82,1.0,True,5,q,-,--,0.969336986542,-30.5,814.0,83,3,-17.9,-4.9,-7.2
83,1.0,True,5,q,-,--,0.902681827545,-36.8,807.7,84,4,-17.9,-6.3,-5.8
84,1.0,True,5,q,-,--,0.250928878784,-41.5,803.0,85,5,-17.9,-4.7,-5.9
85,1.0,True,5,q,-,--,0.217737913132,-47.4,797.1,86,6,-17.9,-5.9,-8.4
86,1.0,True,5,q,-,--,0.63464307785,-54.4,790.1,87,7,-17.9,-7.0,-8.3
87,1.0,True,5,q,-,--,1.61900806427,-58.2,786.3,88,8,-17.9,-3.8,-5.6
88,1.0,True,5,q,-,--,0.36775302887,-63.6,780.9,89,9,-17.9,-5.4,-7.3
89,1.0,True,5,q,-,--,0.201102972031,-69.8,774.7,90,10,-17.9,-6.2,-7.2
90,1.0,True,5,q,-,--,0.28448009491,-74.9,769.6,91,11,-17.9,-5.1,-8.4
91,1.0,True,5,q,-,--,0.284410953522,-78.7,765.8,92,12,-17.9,-3.8,-7.8
92,1.0,True,5,q,-,--,0.617959022522,-81.7,762.8,93,13,-17.9,-3.0,-8.2
93,1.0,True,5,q,-,--,0.284543037415,-85.2,759.3,94,14,-17.9,-3.5,-5.6
94,1.0,True,5,q,-,--,0.417650938034,-91.3,753.2,95,15,-17.9,-6.1,-7.0
95,1.0,True,5,q,-,--,0.384386062622,-98.1,746.4,96,16,-17.9,-6.8,-7.1
96,1.0,True,5,q,-,--,0.368688106537,-103.0,741.5,97,17,-17.9,-4.9,-7.2
97,1.0,True,5,q,-,--,0.634629011154,-111.5,733.0,98,18,-17.9,-8.5,-6.0
98,0.0,True,5,p,-,--,0.551283836365,-120.2,724.3,99,19,-17.9,-4.8,-8.7
99,1.0,True,5,q,-,--,0.267601013184,-126.8,717.7,100,20,-17.9,-6.6,-6.2
100,1.0,False,6,p,++,++,2.0362329483,125.0,842.7,101,1,118.0,7.0,5.1
101,1.0,False,6,p,++,++,1.25200510025,132.0,849.7,102,2,118.0,7.0,5.6
102,1.0,False,6,p,++,++,0.517872095108,140.4,858.1,103,3,118.0,8.4,5.3
103,1.0,False,6,p,++,++,0.701529979706,146.9,864.6,104,4,118.0,6.5,5.9
104,1.0,False,6,p,++,++,0.667943000793,155.5,873.2,105,5,118.0,8.6,4.4
105,1.0,False,6,p,++,++,0.367722034454,163.8,881.5,106,6,118.0,8.3,5.1
106,1.0,False,6,p,++,++,0.41764497757,172.7,890.4,107,7,118.0,8.9,6.3
107,1.0,False,6,p,++,++,0.517822027206,180.3,898.0,108,8,118.0,7.6,2.4
108,1.0,False,6,p,++,++,0.701512098312,189.3,907.0,109,9,118.0,9.0,3.9
109,1.0,False,6,p,++,++,0.952548027039,196.0,913.7,110,10,118.0,6.7,6.7
110,1.0,False,6,p,++,++,1.03509688377,205.7,923.4,111,11,118.0,9.7,6.0
111,1.0,False,6,p,++,++,0.250916004181,213.0,930.7,112,12,118.0,7.3,4.5
112,1.0,False,6,p,++,++,0.217606782913,220.7,938.4,113,13,118.0,7.7,4.2
113,1.0,False,6,p,++,++,0.250897884369,230.2,947.9,114,14,118.0,9.5,4.2
114,1.0,False,6,p,++,++,0.250906944275,238.8,956.5,115,15,118.0,8.6,2.5
115,1.0,False,6,p,++,++,0.351166963577,245.2,962.9,116,16,118.0,6.4,6.5
116,1.0,False,6,p,++,++,0.267609119415,250.4,968.1,117,17,118.0,5.2,4.7
117,1.0,False,6,p,++,++,0.384690999985,255.8,973.5,118,18,118.0,5.4,6.5
118,1.0,False,6,p,++,++,0.535573005676,262.4,980.1,119,19,118.0,6.6,4.3
119,1.0,False,6,p,++,++,0.367769002914,268.8,986.5,120,20,118.0,6.4,5.4
120,1.0,True,7,q,--,-,1.11849999428,-122.9,863.6,121,1,-122.0,-0.9,-1.1
121,1.0,True,7,q,--,-,0.868313789368,-123.7,862.8,122,2,-122.0,-0.8,-1.1
122,1.0,True,7,q,--,-,0.65148806572,-124.7,861.8,123,3,-122.0,-1.0,-0.8
123,1.0,True,7,q,--,-,1.00179600716,-125.7,860.8,124,4,-122.0,-1.0,-1.1
124,1.0,True,7,q,--,-,0.367836952209,-126.9,859.6,125,5,-122.0,-1.2,-1.4
125,1.0,True,7,q,--,-,0.351335048676,-127.9,858.6,126,6,-122.0,-1.0,-1.2
126,1.0,True,7,q,--,-,0.634788036346,-128.2,858.3,127,7,-122.0,-0.3,-1.3
127,1.0,True,7,q,--,-,0.469213962555,-128.9,857.6,128,8,-122.0,-0.7,-1.3
128,1.0,True,7,q,--,-,0.284762144089,-129.7,856.8,129,9,-122.0,-0.8,-1.2
129,1.0,True,7,q,--,-,1.03527998924,-130.4,856.1,130,10,-122.0,-0.7,-1.4
130,1.0,True,7,q,--,-,0.284506082535,-131.5,855.0,131,11,-122.0,-1.1,-1.1
131,1.0,True,7,q,--,-,0.267586946487,-132.7,853.8,132,12,-122.0,-1.2,-1.4
132,1.0,True,7,q,--,-,0.250874042511,-133.4,853.1,133,13,-122.0,-0.7,-1.1
133,1.0,True,7,q,--,-,0.734808921814,-134.5,852.0,134,14,-122.0,-1.1,-1.2
134,1.0,True,7,q,--,-,0.601320981979,-135.6,850.9,135,15,-122.0,-1.1,-1.2
135,1.0,True,7,q,--,-,0.35089802742,-136.4,850.1,136,16,-122.0,-0.8,-1.1
136,1.0,True,7,q,--,-,0.284464120865,-137.4,849.1,137,17,-122.0,-1.0,-1.3
137,1.0,True,7,q,--,-,0.467745065689,-138.1,848.4,138,18,-122.0,-0.7,-1.1
138,1.0,True,7,q,--,-,0.250926017761,-139.1,847.4,139,19,-122.0,-1.0,-1.3
139,1.0,True,7,q,--,-,0.284578084946,-140.0,846.5,140,20,-122.0,-0.9,-1.1
140,1.0,False,8,p,++,++,0.652206897736,131.1,977.6,141,1,124.0,7.1,5.3
141,1.0,False,8,p,++,++,0.685010910034,138.4,984.9,142,2,124.0,7.3,4.2
142,1.0,False,8,p,++,++,0.25094294548,145.8,992.3,143,3,124.0,7.4,4.4
143,1.0,False,8,p,++,++,0.334443807602,152.6,999.1,144,4,124.0,6.8,5.9
144,1.0,False,8,p,++,++,0.267690181732,160.3,1006.8,145,5,124.0,7.7,3.0
145,1.0,False,8,p,++,++,0.284354925156,165.0,1011.5,146,6,124.0,4.7,4.7
146,1.0,False,8,p,++,++,0.267766952515,171.5,1018.0,147,7,124.0,6.5,6.2
147,1.0,False,8,p,++,++,0.367701053619,176.4,1022.9,148,8,124.0,4.9,5.4
148,1.0,False,8,p,++,++,0.384433984756,183.5,1030.0,149,9,124.0,7.1,5.4
149,1.0,False,8,p,++,++,0.267628908157,192.4,1038.9,150,10,124.0,8.9,6.1
150,1.0,False,8,p,++,++,0.234194040298,200.5,1047.0,151,11,124.0,8.1,4.2
151,1.0,False,8,p,++,++,0.401105880737,207.9,1054.4,152,12,124.0,7.4,5.2
152,1.0,False,8,p,++,++,0.26762008667,215.9,1062.4,153,13,124.0,8.0,6.2
153,1.0,False,8,p,++,++,0.352030992508,223.2,1069.7,154,14,124.0,7.3,5.5
154,1.0,False,8,p,++,++,0.534442901611,230.8,1077.3,155,15,124.0,7.6,5.3
155,1.0,False,8,p,++,++,0.467892169952,237.2,1083.7,156,16,124.0,6.4,4.3
156,1.0,False,8,p,++,++,0.517971038818,244.4,1090.9,157,17,124.0,7.2,5.7
157,1.0,False,8,p,++,++,0.384381055832,249.6,1096.1,158,18,124.0,5.2,6.8
158,1.0,False,8,p,++,++,0.30096411705,255.8,1102.3,159,19,124.0,6.2,4.9
159,1.0,False,8,p,++,++,0.367753982544,265.3,1111.8,160,20,124.0,9.5,3.8
160,0.0,False,9,q,--,--,2.23656511307,-129.4,982.4,161,1,-121.0,-6.8,-8.4
161,1.0,False,9,p,--,--,0.351006984711,-135.9,975.9,162,2,-121.0,-6.5,-7.8
162,1.0,False,9,p,--,--,0.584635972977,-141.5,970.3,163,3,-121.0,-5.6,-6.9
163,1.0,False,9,p,--,--,0.285148143768,-146.9,964.9,164,4,-121.0,-5.4,-7.1
164,1.0,False,9,p,--,--,0.35102391243,-153.2,958.6,165,5,-121.0,-6.3,-5.2
165,1.0,False,9,p,--,--,0.334310770035,-156.4,955.4,166,6,-121.0,-3.2,-6.1
166,1.0,False,9,p,--,--,0.284195899963,-159.9,951.9,167,7,-121.0,-3.5,-4.1
167,,False,9,,--,--,3.00320982933,-168.7,943.1,168,8,-121.0,-4.3,-8.8
168,,False,9,,--,--,3.00318384171,-175.6,936.2,169,9,-121.0,-6.4,-6.9
169,,False,9,,--,--,3.00309300423,-180.7,931.1,170,10,-121.0,-2.9,-5.1
170,1.0,False,9,p,--,--,0.617938995361,-184.8,927.0,171,11,-121.0,-4.1,-8.1
171,1.0,False,9,p,--,--,0.517889976501,-190.7,921.1,172,12,-121.0,-5.9,-6.5
172,,False,9,,--,--,3.00326704979,-199.1,912.7,173,13,-121.0,-5.2,-8.4
173,1.0,False,9,p,--,--,0.317687988281,-203.1,908.7,174,14,-121.0,-4.0,-7.3
174,1.0,False,9,p,--,--,0.401124000549,-206.3,905.5,175,15,-121.0,-3.2,-5.8
175,1.0,False,9,p,--,--,0.250912904739,-209.7,902.1,176,16,-121.0,-3.4,-8.3
176,1.0,False,9,p,--,--,0.284554004669,-215.1,896.7,177,17,-121.0,-5.4,-8.4
177,1.0,False,9,p,--,--,0.3010160923,-218.8,893.0,178,18,-121.0,-3.7,-5.9
178,1.0,False,9,p,--,--,0.584609985352,-224.6,887.2,179,19,-121.0,-5.8,-6.5
179,1.0,False,9,p,--,--,0.267548799515,-228.2,883.6,180,20,-121.0,-3.6,-8.0
180,0.0,False,10,q,+,-,0.584630966187,17.5,901.1,181,1,18.7,-0.8,-1.2
181,1.0,False,10,p,+,-,0.300904035568,16.5,900.1,182,2,18.7,-1.0,-0.8
182,0.0,False,10,q,+,-,0.234164953232,15.4,899.0,183,3,18.7,-1.1,-1.1
183,0.0,False,10,q,+,-,0.25103521347,14.1,897.7,184,4,18.7,-0.9,-1.3
184,1.0,False,10,p,+,-,0.351024866104,13.5,897.1,185,5,18.7,-0.6,-1.0
185,1.0,False,10,p,+,-,0.318663835526,12.8,896.4,186,6,18.7,-0.7,-0.8
186,1.0,False,10,p,+,-,0.334563970566,11.9,895.5,187,7,18.7,-0.9,-1.0
187,1.0,False,10,p,+,-,1.10178494453,10.7,894.3,188,8,18.7,-1.2,-0.9
188,1.0,False,10,p,+,-,0.267796993256,9.9,893.5,189,9,18.7,-0.8,-1.2
189,1.0,False,10,p,+,-,0.250963926315,9.1,892.7,190,10,18.7,-0.8,-1.0
190,1.0,False,10,p,+,-,0.301222085953,8.3,891.9,191,11,18.7,-0.8,-0.6
191,1.0,False,10,p,+,-,0.317659854889,7.4,891.0,192,12,18.7,-0.9,-1.2
192,1.0,False,10,p,+,-,0.100769996643,6.7,890.3,193,13,18.7,-0.7,-0.9
193,0.0,False,10,q,+,-,0.401079177856,6.1,889.7,194,14,18.7,-1.0,-0.6
194,1.0,False,10,p,+,-,0.267596006393,4.9,888.5,195,15,18.7,-1.2,-0.9
195,1.0,False,10,p,+,-,0.284346103668,4.1,887.7,196,16,18.7,-0.8,-1.3
196,1.0,False,10,p,+,-,0.26752114296,3.0,886.6,197,17,18.7,-1.1,-1.0
197,0.0,False,10,q,+,-,0.26785492897,1.6,885.2,198,18,18.7,-0.8,-1.4
198,1.0,False,10,p,+,-,0.402242898941,0.4,884.0,199,19,18.7,-1.2,-1.1
199,1.0,False,10,p,+,-,0.334393978119,-0.4,883.2,200,20,18.7,-0.8,-1.0
200,1.0,True,11,q,+,-,0.684791088104,20.5,903.7,201,1,21.5,-1.0,-1.2
201,1.0,True,11,q,+,-,0.284244060516,19.2,902.4,202,2,21.5,-1.3,-0.6
202,1.0,True,11,q,+,-,0.284318208694,18.1,901.3,203,3,21.5,-1.1,-1.4
203,0.0,True,11,p,+,-,0.300944805145,17.5,900.7,204,4,21.5,-0.9,-0.6
204,1.0,True,11,q,+,-,0.234387159348,16.7,899.9,205,5,21.5,-0.8,-1.3
205,0.0,True,11,p,+,-,0.117442846298,15.8,899.0,206,6,21.5,-0.9,-0.9
206,1.0,True,11,q,+,-,0.267600059509,14.9,898.1,207,7,21.5,-0.9,-1.1
207,0.0,True,11,p,+,-,0.201039075851,13.7,896.9,208,8,21.5,-0.7,-1.2
208,0.0,True,11,p,+,-,0.75163602829,12.4,895.6,209,9,21.5,-1.0,-1.3
209,0.0,True,11,p,+,-,0.36772608757,11.6,894.8,210,10,21.5,-1.0,-0.8
210,1.0,True,11,q,+,-,0.334619045258,10.4,893.6,211,11,21.5,-1.2,-0.8
211,0.0,True,11,p,+,-,0.217549085617,9.5,892.7,212,12,21.5,-0.9,-0.9
212,0.0,True,11,p,+,-,0.33446097374,8.4,891.6,213,13,21.5,-0.8,-1.1
213,0.0,True,11,p,+,-,0.28432393074,7.3,890.5,214,14,21.5,-0.7,-1.1
214,0.0,True,11,p,+,-,0.300925016403,6.4,889.6,215,15,21.5,-1.0,-0.9
215,0.0,True,11,p,+,-,0.284228086472,5.3,888.5,216,16,21.5,-1.1,-1.1
216,0.0,True,11,p,+,-,0.284236907959,4.5,887.7,217,17,21.5,-0.9,-0.8
217,0.0,True,11,p,+,-,0.402033090591,3.6,886.8,218,18,21.5,-0.6,-0.9
218,1.0,True,11,q,+,-,1.01845192909,2.8,886.0,219,19,21.5,-0.8,-1.1
219,1.0,True,11,q,+,-,0.267728090286,1.8,885.0,220,20,21.5,-1.0,-1.2
220,0.0,True,12,p,-,--,0.734818935394,-28.7,856.3,221,1,-21.1,-4.5,-7.6
221,1.0,True,12,q,-,--,0.367657899857,-34.6,850.4,222,2,-21.1,-5.9,-6.9
222,1.0,True,12,q,-,--,0.85183596611,-37.9,847.1,223,3,-21.1,-3.3,-7.3
223,1.0,True,12,q,-,--,0.28436088562,-43.1,841.9,224,4,-21.1,-5.2,-9.4
224,1.0,True,12,q,-,--,0.601391792297,-47.9,837.1,225,5,-21.1,-4.8,-8.6
225,1.0,True,12,q,-,--,0.267607927322,-52.7,832.3,226,6,-21.1,-4.8,-7.5
226,1.0,True,12,q,-,--,0.250993967056,-57.5,827.5,227,7,-21.1,-4.8,-6.6
227,1.0,True,12,q,-,--,0.217495918274,-62.3,822.7,228,8,-21.1,-4.8,-6.6
228,1.0,True,12,q,-,--,0.301015138626,-68.1,816.9,229,9,-21.1,-5.8,-8.0
229,1.0,True,12,q,-,--,0.268450975418,-72.7,812.3,230,10,-21.1,-4.6,-6.0
230,1.0,True,12,q,-,--,0.234261035919,-77.0,808.0,231,11,-21.1,-4.3,-9.5
231,1.0,True,12,q,-,--,0.351056098938,-82.0,803.0,232,12,-21.1,-5.0,-6.0
232,1.0,True,12,q,-,--,0.26763510704,-86.5,798.5,233,13,-21.1,-4.5,-7.5
233,1.0,True,12,q,-,--,0.200901031494,-91.9,793.1,234,14,-21.1,-5.4,-5.2
234,1.0,True,12,q,-,--,0.251067876816,-95.4,789.6,235,15,-21.1,-3.5,-6.4
235,1.0,True,12,q,-,--,0.284713029861,-101.9,783.1,236,16,-21.1,-6.5,-7.3
236,1.0,True,12,q,-,--,0.351201057434,-106.5,778.5,237,17,-21.1,-4.6,-7.3
237,1.0,True,12,q,-,--,0.501159191132,-111.3,773.7,238,18,-21.1,-4.8,-6.9
238,1.0,True,12,q,-,--,0.684763908386,-117.1,767.9,239,19,-21.1,-5.8,-7.6
239,1.0,True,12,q,-,--,0.367812871933,-122.8,762.2,240,20,-21.1,-5.7,-6.3
240,0.0,True,13,p,+,--,0.667936086655,13.8,776.0,241,1,21.4,-6.2,-7.6
241,1.0,True,13,q,+,--,0.250969171524,8.3,770.5,242,2,21.4,-5.5,-7.4
242,1.0,True,13,q,+,--,0.234373807907,3.9,766.1,243,3,21.4,-4.4,-7.4
243,1.0,True,13,q,+,--,0.234266996384,-0.2,762.0,244,4,21.4,-4.1,-8.0
244,1.0,True,13,q,+,--,0.28436088562,-4.4,757.8,245,5,21.4,-4.2,-4.1
245,1.0,True,13,q,+,--,0.250862121582,-10.7,751.5,246,6,21.4,-6.3,-8.7
246,1.0,True,13,q,+,--,0.000715017318726,-15.5,746.7,247,7,21.4,-4.8,-8.1
247,1.0,True,13,q,+,--,0.184377908707,-20.1,742.1,248,8,21.4,-4.6,-4.7
248,1.0,True,13,q,+,--,0.501367807388,-22.2,740.0,249,9,21.4,-2.1,-6.8
249,1.0,True,13,q,+,--,1.11864209175,-27.5,734.7,250,10,21.4,-5.3,-5.8
250,1.0,True,13,q,+,--,0.517765045166,-31.3,730.9,251,11,21.4,-3.8,-6.4
251,1.0,True,13,q,+,--,0.317756891251,-36.1,726.1,252,12,21.4,-4.8,-6.5
252,1.0,True,13,q,+,--,0.0675840377808,-41.4,720.8,253,13,21.4,-5.3,-6.1
253,1.0,True,13,q,+,--,0.451133012772,-46.2,716.0,254,14,21.4,-4.8,-7.3
254,1.0,True,13,q,+,--,0.551268815994,-50.7,711.5,255,15,21.4,-4.5,-7.4
255,1.0,True,13,q,+,--,0.284559965134,-57.7,704.5,256,16,21.4,-7.0,-5.4
256,1.0,True,13,q,+,--,0.234128952026,-63.5,698.7,257,17,21.4,-5.8,-5.6
257,1.0,True,13,q,+,--,0.25097489357,-65.6,696.6,258,18,21.4,-2.1,-6.8
258,1.0,True,13,q,+,--,0.217609167099,-68.0,694.2,259,19,21.4,-2.4,-9.3
259,1.0,True,13,q,+,--,0.267700195312,-73.2,689.0,260,20,21.4,-5.2,-8.0
260,0.0,True,14,p,-,+,0.434385061264,-17.2,671.8,261,1,-18.4,1.2,1.2
261,0.0,True,14,p,-,+,0.184322118759,-16.1,672.9,262,2,-18.4,0.9,1.1
262,0.0,True,14,p,-,+,0.40109205246,-15.1,673.9,263,3,-18.4,1.0,1.0
263,0.0,True,14,p,-,+,0.334394931793,-14.0,675.0,264,4,-18.4,1.0,1.1
264,0.0,True,14,p,-,+,0.250824928284,-13.1,675.9,265,5,-18.4,0.9,0.9
265,0.0,True,14,p,-,+,0.251157045364,-12.4,676.6,266,6,-18.4,1.3,0.7
266,0.0,True,14,p,-,+,0.167652845383,-11.4,677.6,267,7,-18.4,1.3,1.0
267,1.0,True,14,q,-,+,0.417569875717,-10.2,678.8,268,8,-18.4,1.2,1.0
268,1.0,True,14,q,-,+,0.235244989395,-8.9,680.1,269,9,-18.4,1.3,0.8
269,1.0,True,14,q,-,+,0.0676147937775,-7.8,681.2,270,10,-18.4,1.1,0.7
270,1.0,True,14,q,-,+,0.200857162476,-6.5,682.5,271,11,-18.4,1.3,1.0
271,1.0,True,14,q,-,+,0.284478902817,-5.2,683.8,272,12,-18.4,1.3,1.0
272,1.0,True,14,q,-,+,0.567981004715,-4.0,685.0,273,13,-18.4,1.2,0.4
273,1.0,True,14,q,-,+,0.300997018814,-2.8,686.2,274,14,-18.4,1.2,0.5
274,1.0,True,14,q,-,+,0.217552900314,-1.7,687.3,275,15,-18.4,1.1,0.8
275,1.0,True,14,q,-,+,1.10181188583,-0.6,688.4,276,16,-18.4,1.1,0.8
276,1.0,True,14,q,-,+,0.267750024796,0.4,689.4,277,17,-18.4,1.0,0.5
277,1.0,True,14,q,-,+,0.0674560070038,1.6,690.6,278,18,-18.4,1.2,0.8
278,1.0,True,14,q,-,+,0.55144405365,2.7,691.7,279,19,-18.4,1.1,0.9
279,1.0,True,14,q,-,+,0.234367132187,3.9,692.9,280,20,-18.4,1.2,0.3
280,1.0,False,15,p,++,++,0.68501496315,134.4,827.3,281,1,128.0,6.4,6.8
281,0.0,False,15,q,++,++,0.284368991852,138.1,831.0,282,2,128.0,9.6,3.7
282,0.0,False,15,q,++,++,0.51778793335,143.3,836.2,283,3,128.0,5.6,5.2
283,1.0,False,15,p,++,++,0.267724990845,146.9,839.8,284,4,128.0,3.6,5.7
284,1.0,False,15,p,++,++,0.184156894684,154.1,847.0,285,5,128.0,7.2,5.2
285,1.0,False,15,p,++,++,0.301219940186,161.0,853.9,286,6,128.0,6.9,7.3
286,1.0,False,15,p,++,++,0.28533411026,170.6,863.5,287,7,128.0,9.6,7.1
287,0.0,False,15,q,++,++,0.267599105835,175.8,868.7,288,8,128.0,7.0,5.2
288,1.0,False,15,p,++,++,0.301254987717,182.3,875.2,289,9,128.0,6.5,3.3
289,1.0,False,15,p,++,++,0.367686986923,190.1,883.0,290,10,128.0,7.8,3.9
290,1.0,False,15,p,++,++,0.584581851959,196.4,889.3,291,11,128.0,6.3,4.3
291,1.0,False,15,p,++,++,0.317723989487,203.5,896.4,292,12,128.0,7.1,5.2
292,1.0,False,15,p,++,++,0.567990064621,210.6,903.5,293,13,128.0,7.1,3.3
293,1.0,False,15,p,++,++,0.317850112915,217.0,909.9,294,14,128.0,6.4,3.7
294,1.0,False,15,p,++,++,0.26776599884,225.2,918.1,295,15,128.0,8.2,4.7
295,1.0,False,15,p,++,++,0.267533063889,229.9,922.8,296,16,128.0,4.7,4.6
296,1.0,False,15,p,++,++,0.334616184235,238.9,931.8,297,17,128.0,9.0,4.0
297,1.0,False,15,p,++,++,0.267518997192,244.8,937.7,298,18,128.0,5.9,5.7
298,1.0,False,15,p,++,++,0.28436589241,251.9,944.8,299,19,128.0,7.1,4.5
299,1.0,False,15,p,++,++,0.784883975983,258.9,951.8,300,20,128.0,7.0,5.6
300,1.0,False,16,p,++,++,0.484452962875,133.6,1085.4,301,1,126.0,7.6,3.6
301,1.0,False,16,p,++,++,0.250973939896,140.0,1091.8,302,2,126.0,6.4,4.9
302,1.0,False,16,p,++,++,0.351227998734,146.6,1098.4,303,3,126.0,6.6,3.8
303,1.0,False,16,p,++,++,0.384440898895,152.7,1104.5,304,4,126.0,6.1,6.7
304,1.0,False,16,p,++,++,0.217839956284,160.0,1111.8,305,5,126.0,7.3,4.7
305,1.0,False,16,p,++,++,0.26767706871,166.0,1117.8,306,6,126.0,6.0,6.6
306,1.0,False,16,p,++,++,0.200973987579,170.4,1122.2,307,7,126.0,4.4,4.9
307,0.0,False,16,q,++,++,0.217709064484,174.9,1126.7,308,8,126.0,6.7,4.5
308,1.0,False,16,p,++,++,0.284348011017,182.5,1134.3,309,9,126.0,7.6,5.9
309,1.0,False,16,p,++,++,0.484452009201,189.4,1141.2,310,10,126.0,6.9,5.2
310,1.0,False,16,p,++,++,0.284539937973,195.6,1147.4,311,11,126.0,6.2,4.4
311,1.0,False,16,p,++,++,0.319445133209,203.0,1154.8,312,12,126.0,7.4,4.8
312,1.0,False,16,p,++,++,0.200903892517,208.9,1160.7,313,13,126.0,5.9,5.7
313,1.0,False,16,p,++,++,0.234184026718,216.6,1168.4,314,14,126.0,7.7,4.7
314,1.0,False,16,p,++,++,0.384384155273,225.3,1177.1,315,15,126.0,8.7,3.2
315,1.0,False,16,p,++,++,0.451056003571,232.3,1184.1,316,16,126.0,7.0,2.5
316,1.0,False,16,p,++,++,0.41771697998,237.6,1189.4,317,17,126.0,5.3,5.5
317,1.0,False,16,p,++,++,0.267716169357,242.4,1194.2,318,18,126.0,4.8,5.0
318,1.0,False,16,p,++,++,0.0507218837738,251.7,1203.5,319,19,126.0,9.3,4.6
319,1.0,False,16,p,++,++,0.284359931946,0.0,1026.0,320,20,126.0,8.7,6.6
