,accuracy,better_option_left,block_number,choice_key,reference_IV,reward_IV,rt,running_score_block,running_score_experiment,trial,trial_block,reference_block,reward_trial_better_option,reward_trial_worse_option
0,,False,1,,++,+,3.00331997871,111.9,1137.9,1,1,111.0,1.2,0.9
1,,False,1,,++,+,3.00312685966,112.8,1138.8,2,2,111.0,1.4,0.9
2,,False,1,,++,+,3.00327992439,113.8,1139.8,3,3,111.0,1.0,1.1
3,,False,1,,++,+,3.00331807137,114.6,1140.6,4,4,111.0,0.8,1.0
4,,False,1,,++,+,3.00329899788,115.4,1141.4,5,5,111.0,0.8,0.8
5,,False,1,,++,+,3.00317001343,116.2,1142.2,6,6,111.0,1.5,0.8
6,,False,1,,++,+,3.00328207016,117.0,1143.0,7,7,111.0,1.5,0.8
7,,False,1,,++,+,3.00325393677,118.1,1144.1,8,8,111.0,1.1,1.3
8,,False,1,,++,+,3.00321292877,118.8,1144.8,9,9,111.0,1.0,0.7
9,,False,1,,++,+,3.0032761097,119.6,1145.6,10,10,111.0,1.2,0.8
10,,False,1,,++,+,3.00313806534,120.3,1146.3,11,11,111.0,0.7,0.9
11,,False,1,,++,+,3.00326395035,121.1,1147.1,12,12,111.0,1.3,0.8
12,,False,1,,++,+,3.00319886208,121.7,1147.7,13,13,111.0,0.6,1.2
13,,False,1,,++,+,3.00312590599,122.6,1148.6,14,14,111.0,1.2,0.9
14,,False,1,,++,+,3.00326800346,123.5,1149.5,15,15,111.0,0.9,1.1
15,,False,1,,++,+,3.00325083733,124.2,1150.2,16,16,111.0,1.0,0.7
16,,False,1,,++,+,3.00318789482,125.0,1151.0,17,17,111.0,0.8,0.8
17,,False,1,,++,+,3.00331020355,125.8,1151.8,18,18,111.0,0.9,0.8
18,,False,1,,++,+,3.00325798988,126.8,1152.8,19,19,111.0,1.4,1.0
19,,False,1,,++,+,3.00322890282,127.6,1153.6,20,20,111.0,1.2,0.8
20,,False,2,,-,-,3.00320506096,-21.8,1131.8,21,1,-20.8,-0.9,-1.0
21,,False,2,,-,-,3.0033390522,-22.9,1130.7,22,2,-20.8,-0.9,-1.1
22,,False,2,,-,-,3.00330018997,-23.9,1129.7,23,3,-20.8,-0.7,-1.0
23,,False,2,,-,-,3.00326180458,-25.0,1128.6,24,4,-20.8,-0.9,-1.1
24,,False,2,,-,-,3.00327014923,-25.9,1127.7,25,5,-20.8,-0.7,-0.9
25,,False,2,,-,-,3.00321507454,-27.0,1126.6,26,6,-20.8,-1.0,-1.1
26,,False,2,,-,-,3.00325417519,-28.1,1125.5,27,7,-20.8,-1.1,-0.8
27,,False,2,,-,-,3.00324010849,-29.2,1124.4,28,8,-20.8,-0.8,-1.1
28,,False,2,,-,-,3.00324988365,-30.2,1123.4,29,9,-20.8,-0.9,-1.0
29,,False,2,,-,-,3.00327801704,-31.4,1122.2,30,10,-20.8,-0.9,-1.2
30,,False,2,,-,-,3.00321006775,-32.4,1121.2,31,11,-20.8,-0.7,-1.0
31,,False,2,,-,-,3.00322413445,-33.5,1120.1,32,12,-20.8,-1.1,-1.1
32,,False,2,,-,-,3.00330710411,-34.2,1119.4,33,13,-20.8,-0.7,-0.7
33,,False,2,,-,-,3.00321793556,-35.5,1118.1,34,14,-20.8,-0.7,-1.3
34,,False,2,,-,-,3.00320506096,-36.7,1116.9,35,15,-20.8,-0.9,-1.2
35,,False,2,,-,-,3.00318193436,-37.8,1115.8,36,16,-20.8,-0.7,-1.1
36,,False,2,,-,-,3.00323104858,-39.2,1114.4,37,17,-20.8,-1.4,-1.4
37,,False,2,,-,-,3.00323390961,-40.6,1113.0,38,18,-20.8,-0.7,-1.4
38,,False,2,,-,-,3.00320982933,-41.7,1111.9,39,19,-20.8,-0.3,-1.1
39,,False,2,,-,-,3.00311112404,-42.9,1110.7,40,20,-20.8,-0.6,-1.2
40,,False,3,,-,--,3.00334000587,-29.2,1081.5,41,1,-20.6,-4.1,-8.6
41,,False,3,,-,--,3.00332999229,-38.2,1072.5,42,2,-20.6,-4.5,-9.0
42,,False,3,,-,--,3.0031452179,-45.2,1065.5,43,3,-20.6,-3.4,-7.0
43,,False,3,,-,--,3.00325083733,-52.6,1058.1,44,4,-20.6,-4.9,-7.4
44,,False,3,,-,--,3.00322604179,-60.0,1050.7,45,5,-20.6,-4.3,-7.4
45,,False,3,,-,--,3.00318813324,-68.0,1042.7,46,6,-20.6,-7.4,-8.0
46,,False,3,,-,--,3.00324702263,-74.5,1036.2,47,7,-20.6,-6.0,-6.5
47,,False,3,,-,--,3.00325202942,-83.5,1027.2,48,8,-20.6,-5.5,-9.0
48,,False,3,,-,--,3.00319600105,-92.1,1018.6,49,9,-20.6,-7.4,-8.6
49,,False,3,,-,--,3.00328016281,-97.5,1013.2,50,10,-20.6,-5.4,-4.7
50,,False,3,,-,--,3.0031850338,-105.2,1005.5,51,11,-20.6,-5.7,-7.7
51,,False,3,,-,--,3.00325417519,-111.7,999.0,52,12,-20.6,-5.0,-6.5
52,,False,3,,-,--,3.0031619072,-117.4,993.3,53,13,-20.6,-5.7,-5.7
53,,False,3,,-,--,3.00324082375,-124.7,986.0,54,14,-20.6,-7.3,-4.9
54,,False,3,,-,--,3.00322413445,-133.5,977.2,55,15,-20.6,-5.1,-8.8
55,,False,3,,-,--,3.00314903259,-141.9,968.8,56,16,-20.6,-6.0,-8.4
56,,False,3,,-,--,3.0031850338,-148.0,962.7,57,17,-20.6,-5.0,-6.1
57,,False,3,,-,--,3.00319695473,-155.3,955.4,58,18,-20.6,-4.2,-7.3
58,,False,3,,-,--,3.00324606895,-163.7,947.0,59,19,-20.6,-6.7,-8.4
59,,False,3,,-,--,3.00322985649,-169.7,941.0,60,20,-20.6,-6.0,-5.9
60,,True,4,,+,-,3.00315880775,19.5,960.5,61,1,20.7,-1.0,-1.2
61,,True,4,,+,-,3.00325798988,18.5,959.5,62,2,20.7,-1.0,-0.7
62,,True,4,,+,-,3.00322008133,17.3,958.3,63,3,20.7,-0.8,-1.2
63,,True,4,,+,-,3.00322794914,16.3,957.3,64,4,20.7,-0.8,-1.0
64,,True,4,,+,-,3.00319600105,15.2,956.2,65,5,20.7,-0.9,-1.1
65,,True,4,,+,-,3.00330591202,14.0,955.0,66,6,20.7,-0.8,-1.2
66,,True,4,,+,-,3.00310087204,12.5,953.5,67,7,20.7,-1.0,-1.5
67,,True,4,,+,-,3.0031888485,11.5,952.5,68,8,20.7,-1.0,-0.6
68,,True,4,,+,-,3.00316786766,10.2,951.2,69,9,20.7,-1.3,-0.9
69,,True,4,,+,-,3.0031709671,8.8,949.8,70,10,20.7,-1.0,-1.4
70,,True,4,,+,-,3.00321602821,7.9,948.9,71,11,20.7,-0.6,-0.9
71,,True,4,,+,-,3.00329685211,7.0,948.0,72,12,20.7,-0.9,-0.9
72,,True,4,,+,-,3.00322198868,5.5,946.5,73,13,20.7,-0.9,-1.5
73,,True,4,,+,-,3.00326609612,4.6,945.6,74,14,20.7,-0.9,-0.9
74,,True,4,,+,-,3.00318980217,3.3,944.3,75,15,20.7,-1.0,-1.3
75,,True,4,,+,-,3.00324082375,2.0,943.0,76,16,20.7,-0.9,-1.3
76,,True,4,,+,-,3.00319886208,0.7,941.7,77,17,20.7,-0.8,-1.3
77,,True,4,,+,-,3.00310206413,-0.5,940.5,78,18,20.7,-1.1,-1.2
78,,True,4,,+,-,3.00331807137,-1.7,939.3,79,19,20.7,-0.7,-1.2
79,,True,4,,+,-,3.0032389164,-3.2,937.8,80,20,20.7,-1.0,-1.5
80,,False,5,,+,-,3.00324392319,15.9,953.7,81,1,17.0,-0.9,-1.1
81,,False,5,,+,-,3.00316309929,14.7,952.5,82,2,17.0,-1.0,-1.2
82,,False,5,,+,-,3.00317811966,13.6,951.4,83,3,17.0,-0.6,-1.1
83,,False,5,,+,-,3.00330591202,12.4,950.2,84,4,17.0,-0.6,-1.2
84,,False,5,,+,-,3.00331497192,11.3,949.1,85,5,17.0,-1.0,-1.1
85,,False,5,,+,-,3.003262043,10.2,948.0,86,6,17.0,-1.0,-1.1
86,,False,5,,+,-,3.00322985649,9.2,947.0,87,7,17.0,-1.0,-0.8
87,,False,5,,+,-,3.00330710411,8.0,945.8,88,8,17.0,-1.2,-1.1
88,,False,5,,+,-,3.0033390522,7.0,944.8,89,9,17.0,-1.0,-0.9
89,,False,5,,+,-,3.00320482254,6.1,943.9,90,10,17.0,-0.8,-0.9
90,,False,5,,+,-,3.00319099426,5.3,943.1,91,11,17.0,-0.7,-0.8
91,,False,5,,+,-,3.00323605537,4.0,941.8,92,12,17.0,-1.3,-0.9
92,,False,5,,+,-,3.00323009491,3.0,940.8,93,13,17.0,-0.9,-1.0
93,,False,5,,+,-,3.00323915482,1.8,939.6,94,14,17.0,-0.9,-1.2
94,,False,5,,+,-,3.00324201584,0.6,938.4,95,15,17.0,-0.7,-1.2
95,,False,5,,+,-,3.00316500664,-0.7,937.1,96,16,17.0,-1.0,-1.3
96,,False,5,,+,-,3.00320386887,-2.0,935.8,97,17,17.0,-0.8,-1.3
97,,False,5,,+,-,3.00322604179,-3.5,934.3,98,18,17.0,-0.9,-1.5
98,,False,5,,+,-,3.00314307213,-4.7,933.1,99,19,17.0,-0.9,-1.2
99,,False,5,,+,-,3.00327801704,-5.9,931.9,100,20,17.0,-0.8,-1.2
100,,False,6,,++,+,3.00328922272,117.7,1049.6,101,1,117.0,1.2,0.7
101,,False,6,,++,+,3.00315904617,118.6,1050.5,102,2,117.0,1.0,0.9
102,,False,6,,++,+,3.00323605537,119.4,1051.3,103,3,117.0,1.2,0.8
103,,False,6,,++,+,3.00327014923,120.5,1052.4,104,4,117.0,1.1,1.3
104,,False,6,,++,+,3.00324201584,121.5,1053.4,105,5,117.0,1.0,1.0
105,,False,6,,++,+,3.00316905975,122.5,1054.4,106,6,117.0,1.0,1.0
106,,False,6,,++,+,3.00325894356,123.2,1055.1,107,7,117.0,0.9,0.7
107,,False,6,,++,+,3.00324296951,124.0,1055.9,108,8,117.0,1.0,0.8
108,,False,6,,++,+,3.00314307213,125.1,1057.0,109,9,117.0,1.1,1.2
109,,False,6,,++,+,3.00322890282,126.0,1057.9,110,10,117.0,1.0,0.9
110,,False,6,,++,+,3.00328397751,126.9,1058.8,111,11,117.0,0.9,0.9
111,,False,6,,++,+,3.00335407257,128.3,1060.2,112,12,117.0,1.4,1.4
112,,False,6,,++,+,3.00331306458,129.3,1061.2,113,13,117.0,1.4,1.0
113,,False,6,,++,+,3.00320601463,130.3,1062.2,114,14,117.0,1.2,1.0
114,,False,6,,++,+,3.00328707695,131.3,1063.2,115,15,117.0,1.2,1.0
115,,False,6,,++,+,3.00319099426,132.0,1063.9,116,16,117.0,1.3,0.7
116,,False,6,,++,+,3.00323081017,132.6,1064.5,117,17,117.0,1.1,0.6
117,,False,6,,++,+,3.00325608253,133.6,1065.5,118,18,117.0,1.1,1.0
118,,False,6,,++,+,3.00313687325,134.4,1066.3,119,19,117.0,1.4,0.8
119,,False,6,,++,+,3.0032749176,135.4,1067.3,120,20,117.0,1.2,1.0
120,,False,7,,--,-,3.00322294235,-108.9,958.4,121,1,-108.0,-0.9,-0.9
121,,False,7,,--,-,3.00314307213,-110.4,956.9,122,2,-108.0,-1.2,-1.5
122,,False,7,,--,-,3.003221035,-111.7,955.6,123,3,-108.0,-0.6,-1.3
123,,False,7,,--,-,3.00328707695,-112.9,954.4,124,4,-108.0,-0.8,-1.2
124,,False,7,,--,-,3.00320196152,-113.9,953.4,125,5,-108.0,-1.0,-0.9
125,,False,7,,--,-,3.00324392319,-115.1,952.2,126,6,-108.0,-1.1,-1.2
126,,False,7,,--,-,3.00325202942,-116.5,950.8,127,7,-108.0,-0.8,-1.4
127,,False,7,,--,-,3.00323987007,-117.6,949.7,128,8,-108.0,-1.1,-1.0
128,,False,7,,--,-,3.00312209129,-118.5,948.8,129,9,-108.0,-0.8,-0.9
129,,False,7,,--,-,3.00325608253,-119.2,948.1,130,10,-108.0,-0.7,-0.7
130,,False,7,,--,-,3.00328302383,-120.5,946.8,131,11,-108.0,-0.8,-1.3
131,,False,7,,--,-,3.00325489044,-121.4,945.9,132,12,-108.0,-0.9,-0.6
132,,False,7,,--,-,3.00325703621,-122.5,944.8,133,13,-108.0,-0.6,-1.1
133,,False,7,,--,-,3.00324296951,-123.9,943.4,134,14,-108.0,-0.8,-1.4
134,,False,7,,--,-,3.00314998627,-125.0,942.3,135,15,-108.0,-0.7,-1.1
135,,False,7,,--,-,3.00328087807,-125.9,941.4,136,16,-108.0,-0.7,-0.9
136,,False,7,,--,-,3.00319099426,-127.0,940.3,137,17,-108.0,-0.6,-1.1
137,,False,7,,--,-,3.00309586525,-128.2,939.1,138,18,-108.0,-0.6,-1.2
138,,False,7,,--,-,3.00329494476,-129.4,937.9,139,19,-108.0,-0.6,-1.2
139,,False,7,,--,-,3.00321102142,-130.6,936.7,140,20,-108.0,-1.0,-1.2
140,,True,8,,+,++,3.00322008133,26.4,963.1,141,1,20.1,6.5,6.3
141,,True,8,,+,++,3.00327801704,32.7,969.4,142,2,20.1,6.8,6.3
142,,True,8,,+,++,3.00324201584,37.7,974.4,143,3,20.1,5.3,5.0
143,,True,8,,+,++,3.00326800346,42.2,978.9,144,4,20.1,8.6,4.5
144,,True,8,,+,++,3.00326418877,46.9,983.6,145,5,20.1,8.6,4.7
145,,True,8,,+,++,3.00324392319,53.8,990.5,146,6,20.1,6.9,7.7
146,,True,8,,+,++,3.00332212448,59.3,996.0,147,7,20.1,6.4,5.5
147,,True,8,,+,++,3.00325894356,64.4,1001.1,148,8,20.1,6.8,5.1
148,,True,8,,+,++,3.00322699547,69.2,1005.9,149,9,20.1,9.4,4.8
149,,True,8,,+,++,3.00320506096,74.4,1011.1,150,10,20.1,5.9,5.2
150,,True,8,,+,++,3.00330305099,78.9,1015.6,151,11,20.1,4.5,5.6
151,,True,8,,+,++,3.00323414803,85.3,1022.0,152,12,20.1,7.2,6.4
152,,True,8,,+,++,3.0032889843,89.3,1026.0,153,13,20.1,8.8,4.0
153,,True,8,,+,++,3.00325298309,95.6,1032.3,154,14,20.1,6.7,6.3
154,,True,8,,+,++,3.0032351017,101.5,1038.2,155,15,20.1,7.0,5.9
155,,True,8,,+,++,3.00313782692,107.5,1044.2,156,16,20.1,8.5,6.0
156,,True,8,,+,++,3.00329780579,111.9,1048.6,157,17,20.1,7.1,4.4
157,,True,8,,+,++,3.00318193436,118.6,1055.3,158,18,20.1,6.8,6.7
158,,True,8,,+,++,3.00324106216,125.9,1062.6,159,19,20.1,7.3,7.3
159,,True,8,,+,++,3.00320601463,129.9,1066.6,160,20,20.1,4.6,4.0
160,,True,9,,--,+,3.00322890282,-123.2,943.4,161,1,-124.0,0.8,1.0
161,,True,9,,--,+,3.0032119751,-122.3,944.3,162,2,-124.0,1.3,0.9
162,,True,9,,--,+,3.00319099426,-121.3,945.3,163,3,-124.0,1.3,1.0
163,,True,9,,--,+,3.00317811966,-120.3,946.3,164,4,-124.0,1.0,1.0
164,,True,9,,--,+,3.00337195396,-119.4,947.2,165,5,-124.0,1.4,0.9
165,,True,9,,--,+,3.0031940937,-118.8,947.8,166,6,-124.0,0.6,0.6
166,,True,9,,--,+,3.00330996513,-118.0,948.6,167,7,-124.0,0.8,1.1
167,,True,9,,--,+,3.00314998627,-116.8,949.8,168,8,-124.0,1.2,1.3
168,,True,9,,--,+,3.00323104858,-116.2,950.4,169,9,-124.0,1.2,0.6
169,,True,9,,--,+,3.00325393677,-115.3,951.3,170,10,-124.0,0.9,1.3
170,,True,9,,--,+,3.00318908691,-114.4,952.2,171,11,-124.0,0.9,1.1
171,,True,9,,--,+,3.00325703621,-113.5,953.1,172,12,-124.0,1.1,0.9
172,,True,9,,--,+,3.00325703621,-112.5,954.1,173,13,-124.0,1.1,1.0
173,,True,9,,--,+,3.00323390961,-111.6,955.0,174,14,-124.0,1.3,0.9
174,,True,9,,--,+,3.00332903862,-110.8,955.8,175,15,-124.0,1.1,0.8
175,,True,9,,--,+,3.00311613083,-110.2,956.4,176,16,-124.0,0.6,1.1
176,,True,9,,--,+,3.00333285332,-109.3,957.3,177,17,-124.0,1.2,0.9
177,,True,9,,--,+,3.00322699547,-108.7,957.9,178,18,-124.0,0.8,0.6
178,,True,9,,--,+,3.00318098068,-108.0,958.6,179,19,-124.0,1.1,0.7
179,,True,9,,--,+,3.00313401222,-107.2,959.4,180,20,-124.0,0.8,1.1
180,,False,10,,+,+,3.00325894356,18.9,978.3,181,1,18.3,1.1,0.6
181,,False,10,,+,+,3.00326490402,19.9,979.3,182,2,18.3,1.0,1.2
182,,False,10,,+,+,3.00311803818,20.7,980.1,183,3,18.3,1.1,0.8
183,,False,10,,+,+,3.00319504738,21.7,981.1,184,4,18.3,1.6,1.0
184,,False,10,,+,+,3.00320100784,22.7,982.1,185,5,18.3,1.4,1.0
185,,False,10,,+,+,3.00320100784,23.5,982.9,186,6,18.3,0.9,0.8
186,,False,10,,+,+,3.00326299667,24.5,983.9,187,7,18.3,1.1,1.0
187,,False,10,,+,+,3.00323486328,25.2,984.6,188,8,18.3,1.2,0.7
188,,False,10,,+,+,3.00320506096,26.2,985.6,189,9,18.3,1.0,1.1
189,,False,10,,+,+,3.00323295593,26.9,986.3,190,10,18.3,0.8,0.7
190,,False,10,,+,+,3.00320696831,27.6,987.0,191,11,18.3,1.1,0.7
191,,False,10,,+,+,3.00328922272,28.1,987.5,192,12,18.3,1.1,0.5
192,,False,10,,+,+,3.00322198868,29.2,988.6,193,13,18.3,1.1,1.3
193,,False,10,,+,+,3.00334191322,30.1,989.5,194,14,18.3,0.9,1.0
194,,False,10,,+,+,3.00332903862,30.9,990.3,195,15,18.3,1.2,0.8
195,,False,10,,+,+,3.00321102142,31.6,991.0,196,16,18.3,0.9,0.7
196,,False,10,,+,+,3.00324296951,32.6,992.0,197,17,18.3,1.1,1.0
197,,False,10,,+,+,3.00326800346,33.5,992.9,198,18,18.3,1.2,0.9
198,,False,10,,+,+,3.00323390961,34.1,993.5,199,19,18.3,0.9,0.6
199,,False,10,,+,+,3.00314807892,35.0,994.4,200,20,18.3,1.1,0.9
200,,True,11,,++,--,3.0033159256,111.6,1106.0,201,1,119.0,-5.6,-7.4
201,,True,11,,++,--,3.00324296951,104.4,1098.8,202,2,119.0,-5.3,-7.2
202,,True,11,,++,--,3.00323414803,96.6,1091.0,203,3,119.0,-3.9,-7.8
203,,True,11,,++,--,3.00321292877,88.6,1083.0,204,4,119.0,-5.2,-8.0
204,,True,11,,++,--,3.00325202942,80.5,1074.9,205,5,119.0,-8.1,-5.4
205,,True,11,,++,--,3.00324511528,72.4,1066.8,206,6,119.0,-6.7,-8.1
206,,True,11,,++,--,3.00317287445,62.7,1057.1,207,7,119.0,-3.4,-9.7
207,,True,11,,++,--,3.00321888924,53.8,1048.2,208,8,119.0,-4.6,-8.9
208,,True,11,,++,--,3.00322198868,48.0,1042.4,209,9,119.0,-3.6,-5.8
209,,True,11,,++,--,3.00321984291,42.5,1036.9,210,10,119.0,-5.1,-5.5
210,,True,11,,++,--,3.00326704979,34.6,1029.0,211,11,119.0,-4.5,-7.9
211,,True,11,,++,--,3.00322318077,27.6,1022.0,212,12,119.0,-5.1,-7.0
212,,True,11,,++,--,3.00327897072,19.8,1014.2,213,13,119.0,-5.5,-7.8
213,,True,11,,++,--,3.00316786766,14.0,1008.4,214,14,119.0,-5.0,-5.8
214,,True,11,,++,--,3.0032479763,8.6,1003.0,215,15,119.0,-4.6,-5.4
215,,True,11,,++,--,3.00329899788,2.9,997.3,216,16,119.0,-3.9,-5.7
216,,True,11,,++,--,3.00321507454,-3.3,991.1,217,17,119.0,-3.3,-6.2
217,,True,11,,++,--,3.00326681137,-13.5,980.9,218,18,119.0,-5.7,-10.2
218,,True,11,,++,--,3.00329589844,-20.7,973.7,219,19,119.0,-4.6,-7.2
219,,True,11,,++,--,3.00315594673,-29.3,965.1,220,20,119.0,-6.1,-8.6
220,,True,12,,--,--,3.00322318077,-130.8,834.3,221,1,-123.0,-6.1,-7.8
221,,True,12,,--,--,3.00316810608,-136.7,828.4,222,2,-123.0,-4.9,-5.9
222,,True,12,,--,--,3.00321316719,-141.8,823.3,223,3,-123.0,-1.8,-5.1
223,,True,12,,--,--,3.00325798988,-150.8,814.3,224,4,-123.0,-6.0,-9.0
224,,True,12,,--,--,3.00327301025,-158.3,806.8,225,5,-123.0,-5.3,-7.5
225,,True,12,,--,--,3.00323700905,-163.5,801.6,226,6,-123.0,-5.2,-4.2
226,,True,12,,--,--,3.00321817398,-170.0,795.1,227,7,-123.0,-4.6,-6.5
227,,True,12,,--,--,3.00324392319,-177.1,788.0,228,8,-123.0,-5.2,-7.1
228,,True,12,,--,--,3.00319290161,-184.1,781.0,229,9,-123.0,-5.9,-7.0
229,,True,12,,--,--,3.00333786011,-192.1,773.0,230,10,-123.0,-6.5,-8.0
230,,True,12,,--,--,3.00322008133,-200.1,765.0,231,11,-123.0,-5.4,-8.0
231,,True,12,,--,--,3.00329995155,-206.7,758.4,232,12,-123.0,-6.6,-5.9
232,,True,12,,--,--,3.00318002701,-213.6,751.5,233,13,-123.0,-5.6,-6.9
233,,True,12,,--,--,3.0032479763,-220.3,744.8,234,14,-123.0,-5.3,-6.7
234,,True,12,,--,--,3.00332808495,-227.8,737.3,235,15,-123.0,-4.1,-7.5
235,1.0,True,12,q,--,--,0.58451795578,-233.8,731.3,236,16,-123.0,-6.0,-7.0
236,1.0,True,12,q,--,--,1.05180907249,-237.4,727.7,237,17,-123.0,-3.6,-6.9
237,1.0,True,12,q,--,--,1.00170707703,-243.4,721.7,238,18,-123.0,-6.0,-6.6
238,1.0,True,12,q,--,--,0.88513302803,-249.6,715.5,239,19,-123.0,-6.2,-5.8
239,0.0,True,12,p,--,--,0.818213939667,-256.4,708.7,240,20,-123.0,-6.8,-6.8
240,0.0,False,13,q,-,++,0.985108137131,-18.0,690.7,241,1,-22.4,5.8,4.4
241,0.0,False,13,q,-,++,0.734766960144,-12.7,696.0,242,2,-22.4,6.2,5.3
242,1.0,False,13,p,-,++,0.551355838776,-5.9,702.8,243,3,-22.4,6.8,5.2
243,1.0,False,13,p,-,++,1.08520698547,4.1,712.8,244,4,-22.4,10.0,3.8
244,,False,13,,-,++,3.00319004059,8.0,716.7,245,5,-22.4,9.3,3.9
245,1.0,False,13,p,-,++,2.01953792572,14.8,723.5,246,6,-22.4,6.8,3.7
246,1.0,False,13,p,-,++,0.584635972977,20.9,729.6,247,7,-22.4,6.1,6.5
247,0.0,False,13,q,-,++,0.718348026276,27.2,735.9,248,8,-22.4,7.1,6.3
248,1.0,False,13,p,-,++,0.634625911713,35.5,744.2,249,9,-22.4,8.3,5.0
249,1.0,False,13,p,-,++,0.918303012848,42.1,750.8,250,10,-22.4,6.6,8.6
250,0.0,False,13,q,-,++,0.63493013382,49.5,758.2,251,11,-22.4,7.8,7.4
251,0.0,False,13,q,-,++,0.484629869461,55.3,764.0,252,12,-22.4,6.4,5.8
252,1.0,False,13,p,-,++,0.401340007782,63.5,772.2,253,13,-22.4,8.2,5.8
253,1.0,False,13,p,-,++,0.584748029709,68.2,776.9,254,14,-22.4,4.7,3.2
254,1.0,False,13,p,-,++,0.651297092438,76.0,784.7,255,15,-22.4,7.8,3.7
255,1.0,False,13,p,-,++,0.901684045792,82.5,791.2,256,16,-22.4,6.5,5.4
256,1.0,False,13,p,-,++,0.918393135071,90.1,798.8,257,17,-22.4,7.6,4.0
257,1.0,False,13,p,-,++,0.517902135849,98.0,806.7,258,18,-22.4,7.9,4.0
258,1.0,False,13,p,-,++,0.501145124435,104.8,813.5,259,19,-22.4,6.8,5.7
259,1.0,False,13,p,-,++,0.551167964935,112.3,821.0,260,20,-22.4,7.5,5.1
260,0.0,True,14,p,--,++,2.8049249649,-118.0,703.0,261,1,-126.0,6.5,8.0
261,0.0,True,14,p,--,++,0.634871959686,-113.1,707.9,262,2,-126.0,6.9,4.9
262,,True,14,,--,++,3.00329184532,-106.1,714.9,263,3,-126.0,7.0,7.9
263,1.0,True,14,q,--,++,0.38449883461,-97.3,723.7,264,4,-126.0,8.8,6.1
264,1.0,True,14,q,--,++,0.384594917297,-88.0,733.0,265,5,-126.0,9.3,4.6
265,1.0,True,14,q,--,++,0.417734861374,-81.1,739.9,266,6,-126.0,6.9,5.5
266,1.0,True,14,q,--,++,0.451191902161,-75.4,745.6,267,7,-126.0,5.7,4.5
267,1.0,True,14,q,--,++,0.467793941498,-67.9,753.1,268,8,-126.0,7.5,6.6
268,1.0,True,14,q,--,++,0.551181077957,-61.4,759.6,269,9,-126.0,6.5,5.0
269,1.0,True,14,q,--,++,0.651309013367,-54.5,766.5,270,10,-126.0,6.9,5.3
270,1.0,True,14,q,--,++,0.685736179352,-47.7,773.3,271,11,-126.0,6.8,3.9
271,1.0,True,14,q,--,++,0.551290988922,-40.3,780.7,272,12,-126.0,7.4,4.2
272,1.0,True,14,q,--,++,1.03503990173,-33.8,787.2,273,13,-126.0,6.5,4.8
273,1.0,True,14,q,--,++,0.501204013824,-24.9,796.1,274,14,-126.0,8.9,3.8
274,1.0,True,14,q,--,++,0.501351118088,-16.5,804.5,275,15,-126.0,8.4,4.6
275,1.0,True,14,q,--,++,0.484559774399,-7.8,813.2,276,16,-126.0,8.7,4.7
276,1.0,True,14,q,--,++,0.951695919037,-1.9,819.1,277,17,-126.0,5.9,4.7
277,1.0,True,14,q,--,++,0.985119104385,5.5,826.5,278,18,-126.0,7.4,5.3
278,1.0,True,14,q,--,++,0.651312828064,12.4,833.4,279,19,-126.0,6.9,5.7
279,1.0,True,14,q,--,++,0.734878063202,19.5,840.5,280,20,-126.0,7.1,3.5
280,0.0,True,15,p,-,--,2.13648509979,-26.9,813.6,281,1,-19.0,-3.2,-7.9
281,1.0,True,15,q,-,--,0.701344966888,-30.2,810.3,282,2,-19.0,-3.3,-8.5
282,1.0,True,15,q,-,--,1.51897406578,-35.9,804.6,283,3,-19.0,-5.7,-6.5
283,1.0,True,15,q,-,--,0.384531021118,-41.4,799.1,284,4,-19.0,-5.5,-4.7
284,0.0,True,15,p,-,--,0.401351928711,-48.3,792.2,285,5,-19.0,-5.7,-6.9
285,1.0,True,15,q,-,--,0.751538991928,-55.6,784.9,286,6,-19.0,-7.3,-6.7
286,1.0,True,15,q,-,--,0.68473815918,-60.7,779.8,287,7,-19.0,-5.1,-7.9
287,1.0,True,15,q,-,--,0.80153298378,-66.3,774.2,288,8,-19.0,-5.6,-6.5
288,1.0,True,15,q,-,--,0.369165897369,-68.5,772.0,289,9,-19.0,-2.2,-6.8
289,1.0,True,15,q,-,--,0.784984111786,-74.4,766.1,290,10,-19.0,-5.9,-6.3
290,1.0,True,15,q,-,--,0.518139123917,-78.6,761.9,291,11,-19.0,-4.2,-5.7
291,1.0,True,15,q,-,--,0.35104393959,-83.4,757.1,292,12,-19.0,-4.8,-6.3
292,1.0,True,15,q,-,--,0.701750040054,-88.1,752.4,293,13,-19.0,-4.7,-9.0
293,1.0,True,15,q,-,--,0.451107025146,-91.2,749.3,294,14,-19.0,-3.1,-6.3
294,1.0,True,15,q,-,--,1.01867699623,-96.0,744.5,295,15,-19.0,-4.8,-8.6
295,1.0,True,15,q,-,--,0.501223087311,-99.9,740.6,296,16,-19.0,-3.9,-6.7
296,1.0,True,15,q,-,--,0.401168107986,-104.4,736.1,297,17,-19.0,-4.5,-5.6
297,1.0,True,15,q,-,--,0.451108932495,-110.1,730.4,298,18,-19.0,-5.7,-7.3
298,1.0,True,15,q,-,--,0.885226011276,-111.7,728.8,299,19,-19.0,-1.6,-6.4
299,1.0,True,15,q,-,--,0.584774971008,-114.5,726.0,300,20,-19.0,-2.8,-5.9
300,1.0,False,16,p,++,++,0.568116903305,127.6,853.6,301,1,121.0,6.6,4.2
301,1.0,False,16,p,++,++,0.401114940643,135.7,861.7,302,2,121.0,8.1,4.0
302,1.0,False,16,p,++,++,0.301189899445,143.1,869.1,303,3,121.0,7.4,3.8
303,1.0,False,16,p,++,++,0.551229953766,149.2,875.2,304,4,121.0,6.1,4.8
304,1.0,False,16,p,++,++,0.50133895874,155.1,881.1,305,5,121.0,5.9,4.8
305,1.0,False,16,p,++,++,0.534579992294,161.6,887.6,306,6,121.0,6.5,5.0
306,1.0,False,16,p,++,++,0.48441696167,169.4,895.4,307,7,121.0,7.8,5.8
307,1.0,False,16,p,++,++,0.484467983246,176.6,902.6,308,8,121.0,7.2,6.8
308,1.0,False,16,p,++,++,0.434545993805,183.9,909.9,309,9,121.0,7.3,3.5
309,1.0,False,16,p,++,++,0.501199007034,190.1,916.1,310,10,121.0,6.2,3.2
310,1.0,False,16,p,++,++,0.484352111816,197.3,923.3,311,11,121.0,7.2,4.4
311,1.0,False,16,p,++,++,0.384510993958,202.8,928.8,312,12,121.0,5.5,5.8
312,0.0,False,16,q,++,++,0.251024961472,207.1,933.1,313,13,121.0,7.0,4.3
313,1.0,False,16,p,++,++,0.267559051514,214.8,940.8,314,14,121.0,7.7,5.6
314,1.0,False,16,p,++,++,0.401142835617,223.5,949.5,315,15,121.0,8.7,5.0
315,1.0,False,16,p,++,++,0.584628105164,231.0,957.0,316,16,121.0,7.5,5.9
316,1.0,False,16,p,++,++,0.400988101959,238.1,964.1,317,17,121.0,7.1,4.3
317,1.0,False,16,p,++,++,0.584618091583,243.6,969.6,318,18,121.0,5.5,5.4
318,1.0,False,16,p,++,++,0.300885915756,251.8,977.8,319,19,121.0,8.2,6.9
319,1.0,False,16,p,++,++,0.38432598114,0.0,1026.0,320,20,121.0,6.6,3.0
