,accuracy,better_option_left,block_number,choice_key,reference_IV,reward_IV,rt,running_score_block,running_score_experiment,trial,trial_block,reference_block,reward_trial_better_option,reward_trial_worse_option
0,0.0,True,1,p,++,-,0.751569032669,113.2,1139.2,1,1,114.0,-1.2,-0.8
1,0.0,True,1,p,++,-,0.834943056107,111.9,1137.9,2,2,114.0,-0.9,-1.3
2,1.0,True,1,q,++,-,0.567936182022,111.1,1137.1,3,3,114.0,-0.8,-1.1
3,0.0,True,1,p,++,-,0.951714038849,109.8,1135.8,4,4,114.0,-0.9,-1.3
4,1.0,True,1,q,++,-,0.734733104706,108.7,1134.7,5,5,114.0,-1.1,-0.8
5,1.0,True,1,q,++,-,0.768167972565,107.8,1133.8,6,6,114.0,-0.9,-1.3
6,0.0,True,1,p,++,-,0.701390981674,106.3,1132.3,7,7,114.0,-0.8,-1.5
7,0.0,True,1,p,++,-,0.36776804924,105.1,1131.1,8,8,114.0,-0.8,-1.2
8,0.0,True,1,p,++,-,0.301035881042,104.1,1130.1,9,9,114.0,-0.6,-1.0
9,1.0,True,1,q,++,-,0.301081895828,103.2,1129.2,10,10,114.0,-0.9,-1.1
10,1.0,True,1,q,++,-,0.801649808884,102.4,1128.4,11,11,114.0,-0.8,-1.3
11,0.0,True,1,p,++,-,0.53458404541,101.3,1127.3,12,12,114.0,-0.9,-1.1
12,1.0,True,1,q,++,-,0.417796134949,100.3,1126.3,13,13,114.0,-1.0,-1.0
13,0.0,True,1,p,++,-,0.417865037918,99.2,1125.2,14,14,114.0,-1.1,-1.1
14,0.0,True,1,p,++,-,0.784638166428,97.7,1123.7,15,15,114.0,-0.9,-1.5
15,1.0,True,1,q,++,-,0.618039131165,97.0,1123.0,16,16,114.0,-0.7,-0.7
16,1.0,True,1,q,++,-,0.617947101593,96.0,1122.0,17,17,114.0,-1.0,-1.0
17,1.0,True,1,q,++,-,0.651438951492,95.0,1121.0,18,18,114.0,-1.0,-1.1
18,1.0,True,1,q,++,-,0.634764909744,94.6,1120.6,19,19,114.0,-0.4,-0.9
19,1.0,True,1,q,++,-,0.65128493309,93.3,1119.3,20,20,114.0,-1.3,-1.5
20,0.0,True,2,p,-,--,2.5533618927,-25.9,1093.4,21,1,-19.1,-4.2,-6.8
21,1.0,True,2,q,-,--,1.10198187828,-28.6,1090.7,22,2,-19.1,-2.7,-7.5
22,1.0,True,2,q,-,--,0.618050098419,-33.3,1086.0,23,3,-19.1,-4.7,-6.5
23,1.0,True,2,q,-,--,0.551267147064,-39.7,1079.6,24,4,-19.1,-6.4,-5.4
24,0.0,True,2,p,-,--,0.601260900497,-45.4,1073.9,25,5,-19.1,-5.6,-5.7
25,0.0,True,2,p,-,--,0.384296894073,-51.8,1067.5,26,6,-19.1,-3.9,-6.4
26,1.0,True,2,q,-,--,0.318530082703,-57.5,1061.8,27,7,-19.1,-5.7,-6.9
27,1.0,True,2,q,-,--,0.684666156769,-62.9,1056.4,28,8,-19.1,-5.4,-6.6
28,1.0,True,2,q,-,--,0.601509094238,-69.7,1049.6,29,9,-19.1,-6.8,-6.4
29,1.0,True,2,q,-,--,0.751571893692,-76.1,1043.2,30,10,-19.1,-6.4,-7.3
30,1.0,True,2,q,-,--,0.70160984993,-79.9,1039.4,31,11,-19.1,-3.8,-8.0
31,1.0,True,2,q,-,--,0.651375770569,-83.2,1036.1,32,12,-19.1,-3.3,-8.8
32,1.0,True,2,q,-,--,0.818238019943,-89.0,1030.3,33,13,-19.1,-5.8,-8.7
33,1.0,True,2,q,-,--,0.367679834366,-93.9,1025.4,34,14,-19.1,-4.9,-7.0
34,1.0,True,2,q,-,--,0.35099196434,-100.7,1018.6,35,15,-19.1,-6.8,-7.2
35,1.0,True,2,q,-,--,0.317859888077,-106.1,1013.2,36,16,-19.1,-5.4,-7.5
36,1.0,True,2,q,-,--,0.501307964325,-110.1,1009.2,37,17,-19.1,-4.0,-7.7
37,1.0,True,2,q,-,--,0.618054151535,-115.1,1004.2,38,18,-19.1,-5.0,-7.9
38,1.0,True,2,q,-,--,0.367663145065,-121.4,997.9,39,19,-19.1,-6.3,-6.5
39,1.0,True,2,q,-,--,0.734931945801,-126.9,992.4,40,20,-19.1,-5.5,-7.4
40,0.0,True,3,p,+,+,1.08499693871,21.6,1014.0,41,1,20.6,1.1,1.0
41,0.0,True,3,p,+,+,0.567941904068,22.5,1014.9,42,2,20.6,0.7,0.9
42,0.0,True,3,p,+,+,0.367885828018,23.4,1015.8,43,3,20.6,1.0,0.9
43,0.0,True,3,p,+,+,0.451122999191,24.1,1016.5,44,4,20.6,1.1,0.7
44,1.0,True,3,q,+,+,0.484668016434,25.2,1017.6,45,5,20.6,1.1,0.9
45,1.0,True,3,q,+,+,0.401204824448,26.9,1019.3,46,6,20.6,1.7,1.0
46,1.0,True,3,q,+,+,0.417709827423,28.0,1020.4,47,7,20.6,1.1,1.1
47,1.0,True,3,q,+,+,0.484668970108,28.9,1021.3,48,8,20.6,0.9,1.0
48,1.0,True,3,q,+,+,0.601521015167,29.7,1022.1,49,9,20.6,0.8,1.2
49,0.0,True,3,p,+,+,0.367648124695,30.8,1023.2,50,10,20.6,1.2,1.1
50,0.0,True,3,p,+,+,0.334485054016,31.7,1024.1,51,11,20.6,0.7,0.9
51,0.0,True,3,p,+,+,0.334614992142,32.6,1025.0,52,12,20.6,1.0,0.9
52,1.0,True,3,q,+,+,0.517846107483,33.8,1026.2,53,13,20.6,1.2,1.1
53,1.0,True,3,q,+,+,0.651700019836,34.9,1027.3,54,14,20.6,1.1,1.2
54,1.0,True,3,q,+,+,0.502075910568,36.3,1028.7,55,15,20.6,1.4,1.0
55,0.0,True,3,p,+,+,0.534575939178,37.1,1029.5,56,16,20.6,1.0,0.8
56,1.0,True,3,q,+,+,0.45108294487,38.3,1030.7,57,17,20.6,1.2,0.6
57,1.0,True,3,q,+,+,0.60133600235,39.4,1031.8,58,18,20.6,1.1,1.0
58,1.0,True,3,q,+,+,0.568097114563,40.7,1033.1,59,19,20.6,1.3,0.8
59,1.0,True,3,q,+,+,0.668072938919,41.6,1034.0,60,20,20.6,0.9,0.7
60,0.0,False,4,q,-,+,0.818097829819,-19.2,1014.8,61,1,-20.6,1.0,1.4
61,0.0,False,4,q,-,+,0.651539087296,-18.4,1015.6,62,2,-20.6,1.1,0.8
62,0.0,False,4,q,-,+,0.284287929535,-17.6,1016.4,63,3,-20.6,1.6,0.8
63,0.0,False,4,q,-,+,0.317698955536,-16.8,1017.2,64,4,-20.6,1.1,0.8
64,1.0,False,4,p,-,+,0.284527778625,-15.9,1018.1,65,5,-20.6,0.9,0.7
65,1.0,False,4,p,-,+,0.768105983734,-14.7,1019.3,66,6,-20.6,1.2,0.8
66,1.0,False,4,p,-,+,0.601416826248,-13.3,1020.7,67,7,-20.6,1.4,0.8
67,1.0,False,4,p,-,+,0.835075139999,-12.1,1021.9,68,8,-20.6,1.2,0.9
68,1.0,False,4,p,-,+,0.684828996658,-10.9,1023.1,69,9,-20.6,1.2,0.7
69,1.0,False,4,p,-,+,0.818079948425,-9.9,1024.1,70,10,-20.6,1.0,0.9
70,1.0,False,4,p,-,+,0.502398967743,-8.6,1025.4,71,11,-20.6,1.3,1.1
71,1.0,False,4,p,-,+,0.551295042038,-7.4,1026.6,72,12,-20.6,1.2,1.0
72,1.0,False,4,p,-,+,0.484524011612,-6.5,1027.5,73,13,-20.6,0.9,1.0
73,0.0,False,4,q,-,+,0.417950868607,-5.4,1028.6,74,14,-20.6,1.0,1.1
74,0.0,False,4,q,-,+,0.384551048279,-4.6,1029.4,75,15,-20.6,1.0,0.8
75,1.0,False,4,p,-,+,0.36775803566,-3.8,1030.2,76,16,-20.6,0.8,1.3
76,0.0,False,4,q,-,+,0.651443004608,-3.1,1030.9,77,17,-20.6,1.2,0.7
77,0.0,False,4,q,-,+,0.668011903763,-2.1,1031.9,78,18,-20.6,1.2,1.0
78,0.0,False,4,q,-,+,0.652391910553,-1.3,1032.7,79,19,-20.6,1.1,0.8
79,1.0,False,4,p,-,+,0.367766857147,-0.3,1033.7,80,20,-20.6,1.0,1.0
80,0.0,False,5,q,++,-,1.21877908707,129.9,1163.6,81,1,131.0,-0.9,-1.1
81,1.0,False,5,p,++,-,0.818245172501,129.1,1162.8,82,2,131.0,-0.8,-0.8
82,1.0,False,5,p,++,-,1.03496003151,128.6,1162.3,83,3,131.0,-0.5,-1.1
83,1.0,False,5,p,++,-,0.851834058762,127.9,1161.6,84,4,131.0,-0.7,-0.7
84,1.0,False,5,p,++,-,1.01852011681,127.4,1161.1,85,5,131.0,-0.5,-0.9
85,1.0,False,5,p,++,-,0.951723098755,126.4,1160.1,86,6,131.0,-1.0,-1.0
86,1.0,False,5,p,++,-,1.00276708603,125.7,1159.4,87,7,131.0,-0.7,-1.2
87,1.0,False,5,p,++,-,0.668058872223,124.7,1158.4,88,8,131.0,-1.0,-1.2
88,1.0,False,5,p,++,-,0.684762001038,123.8,1157.5,89,9,131.0,-0.9,-1.3
89,1.0,False,5,p,++,-,0.601282119751,122.7,1156.4,90,10,131.0,-1.1,-1.0
90,0.0,False,5,q,++,-,0.367600917816,121.7,1155.4,91,11,131.0,-1.1,-1.0
91,0.0,False,5,q,++,-,0.584753990173,120.8,1154.5,92,12,131.0,-1.0,-0.9
92,0.0,False,5,q,++,-,0.518075942993,119.8,1153.5,93,13,131.0,-0.9,-1.0
93,1.0,False,5,p,++,-,0.718029975891,118.5,1152.2,94,14,131.0,-1.3,-1.0
94,0.0,False,5,q,++,-,0.618231773376,117.2,1150.9,95,15,131.0,-0.7,-1.3
95,1.0,False,5,p,++,-,0.534743070602,116.5,1150.2,96,16,131.0,-0.7,-1.1
96,1.0,False,5,p,++,-,0.417818069458,115.6,1149.3,97,17,131.0,-0.9,-1.3
97,1.0,False,5,p,++,-,0.384710073471,114.8,1148.5,98,18,131.0,-0.8,-1.1
98,1.0,False,5,p,++,-,0.501263856888,114.0,1147.7,99,19,131.0,-0.8,-1.0
99,1.0,False,5,p,++,-,0.401298046112,113.3,1147.0,100,20,131.0,-0.7,-1.0
100,1.0,True,6,q,--,-,0.918473005295,-112.8,1034.2,101,1,-112.0,-0.8,-1.1
101,1.0,True,6,q,--,-,0.367746829987,-113.1,1033.9,102,2,-112.0,-0.3,-1.2
102,1.0,True,6,q,--,-,0.568012952805,-113.9,1033.1,103,3,-112.0,-0.8,-1.1
103,1.0,True,6,q,--,-,0.618245840073,-115.0,1032.0,104,4,-112.0,-1.1,-0.8
104,0.0,True,6,p,--,-,0.401109933853,-116.0,1031.0,105,5,-112.0,-0.9,-1.0
105,1.0,True,6,q,--,-,0.352039813995,-117.1,1029.9,106,6,-112.0,-1.1,-1.3
106,1.0,True,6,q,--,-,0.634788990021,-118.3,1028.7,107,7,-112.0,-1.2,-1.0
107,1.0,True,6,q,--,-,0.317733049393,-119.1,1027.9,108,8,-112.0,-0.8,-1.2
108,1.0,True,6,q,--,-,0.35099196434,-120.1,1026.9,109,9,-112.0,-1.0,-1.1
109,1.0,True,6,q,--,-,0.317734003067,-121.1,1025.9,110,10,-112.0,-1.0,-0.9
110,1.0,True,6,q,--,-,0.267630815506,-121.9,1025.1,111,11,-112.0,-0.8,-1.1
111,1.0,True,6,q,--,-,0.317744016647,-122.7,1024.3,112,12,-112.0,-0.8,-1.0
112,0.0,True,6,p,--,-,0.300962209702,-124.2,1022.8,113,13,-112.0,-1.1,-1.5
113,1.0,True,6,q,--,-,0.56784081459,-124.8,1022.2,114,14,-112.0,-0.6,-0.8
114,1.0,True,6,q,--,-,0.651371955872,-125.6,1021.4,115,15,-112.0,-0.8,-1.5
115,1.0,True,6,q,--,-,0.584576129913,-126.1,1020.9,116,16,-112.0,-0.5,-1.5
116,1.0,True,6,q,--,-,0.418017148972,-126.5,1020.5,117,17,-112.0,-0.4,-1.0
117,1.0,True,6,q,--,-,0.584543943405,-127.4,1019.6,118,18,-112.0,-0.9,-1.3
118,1.0,True,6,q,--,-,0.40110707283,-127.9,1019.1,119,19,-112.0,-0.5,-1.2
119,1.0,True,6,q,--,-,0.434838056564,-128.7,1018.3,120,20,-112.0,-0.8,-1.5
120,0.0,True,7,p,--,--,1.00183415413,-130.4,887.9,121,1,-122.0,-6.2,-8.4
121,1.0,True,7,q,--,--,0.501298904419,-134.9,883.4,122,2,-122.0,-4.5,-7.6
122,1.0,True,7,q,--,--,0.534533023834,-139.0,879.3,123,3,-122.0,-4.1,-7.1
123,1.0,True,7,q,--,--,0.367835998535,-146.1,872.2,124,4,-122.0,-7.1,-9.1
124,1.0,True,7,q,--,--,0.517970085144,-152.0,866.3,125,5,-122.0,-5.9,-6.2
125,1.0,True,7,q,--,--,0.501158952713,-157.9,860.4,126,6,-122.0,-5.9,-4.8
126,1.0,True,7,q,--,--,0.285238027573,-163.5,854.8,127,7,-122.0,-5.6,-8.0
127,1.0,True,7,q,--,--,0.718249082565,-168.5,849.8,128,8,-122.0,-5.0,-8.7
128,1.0,True,7,q,--,--,0.517961978912,-172.9,845.4,129,9,-122.0,-4.4,-5.5
129,1.0,True,7,q,--,--,0.551191091537,-181.1,837.2,130,10,-122.0,-8.2,-5.8
130,1.0,True,7,q,--,--,0.484488964081,-187.5,830.8,131,11,-122.0,-6.4,-8.3
131,1.0,True,7,q,--,--,0.634995937347,-191.6,826.7,132,12,-122.0,-4.1,-8.7
132,1.0,True,7,q,--,--,0.384397983551,-193.6,824.7,133,13,-122.0,-2.0,-8.3
133,1.0,True,7,q,--,--,1.11955404282,-197.4,820.9,134,14,-122.0,-3.8,-7.1
134,1.0,True,7,q,--,--,1.26862812042,-201.2,817.1,135,15,-122.0,-3.8,-7.5
135,1.0,True,7,q,--,--,0.58466386795,-206.8,811.5,136,16,-122.0,-5.6,-8.9
136,1.0,True,7,q,--,--,0.651482105255,-209.2,809.1,137,17,-122.0,-2.4,-7.5
137,1.0,True,7,q,--,--,0.484580993652,-214.5,803.8,138,18,-122.0,-5.3,-7.3
138,1.0,True,7,q,--,--,0.451080083847,-219.8,798.5,139,19,-122.0,-5.3,-5.2
139,1.0,True,7,q,--,--,0.267755031586,-224.4,793.9,140,20,-122.0,-4.6,-5.7
140,0.0,True,8,p,++,++,0.818068981171,118.6,912.5,141,1,114.0,8.0,4.6
141,1.0,True,8,q,++,++,0.267836093903,125.1,919.0,142,2,114.0,6.5,6.5
142,1.0,True,8,q,++,++,0.267643928528,131.9,925.8,143,3,114.0,6.8,3.6
143,1.0,True,8,q,++,++,0.417807102203,137.6,931.5,144,4,114.0,5.7,5.7
144,1.0,True,8,q,++,++,0.617954969406,144.9,938.8,145,5,114.0,7.3,6.3
145,1.0,True,8,q,++,++,0.551237821579,152.6,946.5,146,6,114.0,7.7,5.1
146,1.0,True,8,q,++,++,0.451207876205,159.6,953.5,147,7,114.0,7.0,4.5
147,1.0,True,8,q,++,++,0.518057107925,166.6,960.5,148,8,114.0,7.0,2.8
148,1.0,True,8,q,++,++,0.835112094879,171.7,965.6,149,9,114.0,5.1,3.7
149,1.0,True,8,q,++,++,0.551195859909,177.7,971.6,150,10,114.0,6.0,5.8
150,1.0,True,8,q,++,++,0.951518058777,183.2,977.1,151,11,114.0,5.5,3.8
151,1.0,True,8,q,++,++,0.651412963867,190.9,984.8,152,12,114.0,7.7,4.4
152,1.0,True,8,q,++,++,0.684942960739,197.3,991.2,153,13,114.0,6.4,8.5
153,1.0,True,8,q,++,++,0.401029825211,206.3,1000.2,154,14,114.0,9.0,4.8
154,1.0,True,8,q,++,++,0.885170936584,213.7,1007.6,155,15,114.0,7.4,5.7
155,1.0,True,8,q,++,++,0.26785993576,220.2,1014.1,156,16,114.0,6.5,5.3
156,1.0,True,8,q,++,++,0.284409046173,225.8,1019.7,157,17,114.0,5.6,4.8
157,1.0,True,8,q,++,++,0.351022005081,233.8,1027.7,158,18,114.0,8.0,2.9
158,1.0,True,8,q,++,++,0.651546955109,241.4,1035.3,159,19,114.0,7.6,6.2
159,1.0,True,8,q,++,++,0.617974996567,247.7,1041.6,160,20,114.0,6.3,6.2
160,0.0,False,9,q,+,++,0.685771942139,20.8,1062.4,161,1,18.4,6.7,2.4
161,0.0,False,9,q,+,++,0.367817163467,25.5,1067.1,162,2,18.4,6.3,4.7
162,1.0,False,9,p,+,++,0.434445142746,32.4,1074.0,163,3,18.4,6.9,5.9
163,1.0,False,9,p,+,++,0.301055908203,40.8,1082.4,164,4,18.4,8.4,4.3
164,1.0,False,9,p,+,++,0.267696142197,49.2,1090.8,165,5,18.4,8.4,5.7
165,1.0,False,9,p,+,++,0.334388971329,57.4,1099.0,166,6,18.4,8.2,5.7
166,1.0,False,9,p,+,++,0.367928028107,64.2,1105.8,167,7,18.4,6.8,4.9
167,1.0,False,9,p,+,++,0.234221935272,70.1,1111.7,168,8,18.4,5.9,2.4
168,1.0,False,9,p,+,++,0.267664909363,76.0,1117.6,169,9,18.4,5.9,5.3
169,1.0,False,9,p,+,++,0.250946044922,81.4,1123.0,170,10,18.4,5.4,4.8
170,1.0,False,9,p,+,++,0.334360837936,88.8,1130.4,171,11,18.4,7.4,4.8
171,1.0,False,9,p,+,++,0.284233093262,95.8,1137.4,172,12,18.4,7.0,3.5
172,1.0,False,9,p,+,++,0.250920057297,101.9,1143.5,173,13,18.4,6.1,4.7
173,1.0,False,9,p,+,++,0.501214027405,108.8,1150.4,174,14,18.4,6.9,6.1
174,1.0,False,9,p,+,++,0.250913143158,115.5,1157.1,175,15,18.4,6.7,4.6
175,1.0,False,9,p,+,++,0.351216077805,122.3,1163.9,176,16,18.4,6.8,4.7
176,1.0,False,9,p,+,++,0.267748117447,129.5,1171.1,177,17,18.4,7.2,5.4
177,1.0,False,9,p,+,++,0.301066875458,136.6,1178.2,178,18,18.4,7.1,4.1
178,1.0,False,9,p,+,++,0.334565162659,143.9,1185.5,179,19,18.4,7.3,6.6
179,1.0,False,9,p,+,++,0.234139204025,150.1,1191.7,180,20,18.4,6.2,6.9
180,1.0,True,10,q,-,-,0.634588956833,-21.8,1169.9,181,1,-20.6,-1.2,-1.1
181,0.0,True,10,p,-,-,0.234241962433,-22.8,1168.9,182,2,-20.6,-0.7,-1.0
182,1.0,True,10,q,-,-,0.301274061203,-23.6,1168.1,183,3,-20.6,-0.8,-1.0
183,1.0,True,10,q,-,-,0.251135110855,-24.3,1167.4,184,4,-20.6,-0.7,-1.1
184,1.0,True,10,q,-,-,0.350948810577,-25.1,1166.6,185,5,-20.6,-0.8,-1.0
185,1.0,True,10,q,-,-,0.267542123795,-26.2,1165.5,186,6,-20.6,-1.1,-1.4
186,1.0,True,10,q,-,-,0.284481048584,-27.0,1164.7,187,7,-20.6,-0.8,-1.0
187,1.0,True,10,q,-,-,0.234330892563,-27.4,1164.3,188,8,-20.6,-0.4,-1.0
188,1.0,True,10,q,-,-,0.618019104004,-28.5,1163.2,189,9,-20.6,-1.1,-1.1
189,1.0,True,10,q,-,-,0.334353923798,-29.5,1162.2,190,10,-20.6,-1.0,-1.2
190,1.0,True,10,q,-,-,0.468950033188,-30.7,1161.0,191,11,-20.6,-1.2,-0.8
191,1.0,True,10,q,-,-,0.184200048447,-31.4,1160.3,192,12,-20.6,-0.7,-0.9
192,1.0,True,10,q,-,-,0.317723989487,-32.3,1159.4,193,13,-20.6,-0.9,-1.4
193,1.0,True,10,q,-,-,0.284363031387,-33.1,1158.6,194,14,-20.6,-0.8,-1.4
194,1.0,True,10,q,-,-,0.251270055771,-33.9,1157.8,195,15,-20.6,-0.8,-1.3
195,1.0,True,10,q,-,-,0.234349012375,-34.6,1157.1,196,16,-20.6,-0.7,-1.0
196,1.0,True,10,q,-,-,0.234461784363,-35.6,1156.1,197,17,-20.6,-1.0,-1.2
197,1.0,True,10,q,-,-,0.334290981293,-36.5,1155.2,198,18,-20.6,-0.9,-1.3
198,1.0,True,10,q,-,-,0.401011943817,-37.6,1154.1,199,19,-20.6,-1.1,-1.1
199,1.0,True,10,q,-,-,0.284336090088,-38.3,1153.4,200,20,-20.6,-0.7,-1.2
200,1.0,True,11,q,-,--,1.13545203209,-23.3,1130.1,201,1,-17.7,-5.6,-6.2
201,1.0,True,11,q,-,--,0.334383964539,-28.7,1124.7,202,2,-17.7,-5.4,-5.8
202,1.0,True,11,q,-,--,0.63471198082,-33.6,1119.8,203,3,-17.7,-4.9,-6.1
203,1.0,True,11,q,-,--,0.318005084991,-36.6,1116.8,204,4,-17.7,-3.0,-6.9
204,1.0,True,11,q,-,--,0.367671012878,-41.3,1112.1,205,5,-17.7,-4.7,-7.1
205,1.0,True,11,q,-,--,0.384490013123,-46.4,1107.0,206,6,-17.7,-5.1,-6.4
206,1.0,True,11,q,-,--,0.384574174881,-49.9,1103.5,207,7,-17.7,-3.5,-5.6
207,1.0,True,11,q,-,--,0.484607934952,-55.0,1098.4,208,8,-17.7,-5.1,-6.3
208,1.0,True,11,q,-,--,0.534666061401,-60.1,1093.3,209,9,-17.7,-5.1,-6.9
209,1.0,True,11,q,-,--,0.267735004425,-65.5,1087.9,210,10,-17.7,-5.4,-7.5
210,1.0,True,11,q,-,--,0.31765294075,-70.2,1083.2,211,11,-17.7,-4.7,-7.6
211,1.0,True,11,q,-,--,0.234157800674,-75.6,1077.8,212,12,-17.7,-5.4,-6.1
212,1.0,True,11,q,-,--,0.300891160965,-81.7,1071.7,213,13,-17.7,-6.1,-7.3
213,1.0,True,11,q,-,--,0.250998020172,-85.7,1067.7,214,14,-17.7,-4.0,-10.1
214,1.0,True,11,q,-,--,0.384547948837,-91.2,1062.2,215,15,-17.7,-5.5,-8.2
215,1.0,True,11,q,-,--,0.317764043808,-97.6,1055.8,216,16,-17.7,-6.4,-7.5
216,1.0,True,11,q,-,--,0.334363937378,-104.4,1049.0,217,17,-17.7,-6.8,-5.0
217,1.0,True,11,q,-,--,0.2510201931,-110.3,1043.1,218,18,-17.7,-5.9,-7.8
218,1.0,True,11,q,-,--,0.317645072937,-114.6,1038.8,219,19,-17.7,-4.3,-8.3
219,1.0,True,11,q,-,--,0.284345149994,-118.7,1034.7,220,20,-17.7,-4.1,-6.0
220,1.0,False,12,p,--,+,0.934899091721,-111.9,922.8,221,1,-113.0,1.1,0.8
221,1.0,False,12,p,--,+,0.284275054932,-110.6,924.1,222,2,-113.0,1.3,0.8
222,1.0,False,12,p,--,+,0.50129699707,-109.3,925.4,223,3,-113.0,1.3,0.4
223,1.0,False,12,p,--,+,0.284498929977,-108.1,926.6,224,4,-113.0,1.2,0.9
224,1.0,False,12,p,--,+,0.684746026993,-107.2,927.5,225,5,-113.0,0.9,1.2
225,1.0,False,12,p,--,+,0.250977993011,-105.9,928.8,226,6,-113.0,1.3,0.9
226,1.0,False,12,p,--,+,0.451401948929,-105.1,929.6,227,7,-113.0,0.8,0.8
227,1.0,False,12,p,--,+,0.317738056183,-104.3,930.4,228,8,-113.0,0.8,0.9
228,1.0,False,12,p,--,+,0.251210927963,-102.7,932.0,229,9,-113.0,1.6,1.0
229,1.0,False,12,p,--,+,0.51783490181,-101.3,933.4,230,10,-113.0,1.4,0.7
230,1.0,False,12,p,--,+,0.468034982681,-100.0,934.7,231,11,-113.0,1.3,1.1
231,1.0,False,12,p,--,+,0.484884023666,-98.9,935.8,232,12,-113.0,1.1,0.9
232,1.0,False,12,p,--,+,0.567933082581,-97.8,936.9,233,13,-113.0,1.1,0.8
233,1.0,False,12,p,--,+,0.367780923843,-96.7,938.0,234,14,-113.0,1.1,1.0
234,1.0,False,12,p,--,+,0.701431035995,-95.7,939.0,235,15,-113.0,1.0,0.6
235,1.0,False,12,p,--,+,0.367628097534,-94.8,939.9,236,16,-113.0,0.9,1.1
236,1.0,False,12,p,--,+,0.63454413414,-93.6,941.1,237,17,-113.0,1.2,1.0
237,1.0,False,12,p,--,+,0.301229000092,-92.3,942.4,238,18,-113.0,1.3,1.1
238,1.0,False,12,p,--,+,0.467879056931,-91.3,943.4,239,19,-113.0,1.0,0.8
239,1.0,False,12,p,--,+,0.300876140594,-90.1,944.6,240,20,-113.0,1.2,0.7
240,1.0,False,13,p,--,++,0.784867048264,-113.2,831.4,241,1,-123.0,9.8,6.6
241,1.0,False,13,p,--,++,0.26780295372,-105.2,839.4,242,2,-123.0,8.0,5.5
242,1.0,False,13,p,--,++,0.251957893372,-97.2,847.4,243,3,-123.0,8.0,3.0
243,1.0,False,13,p,--,++,0.26774096489,-90.0,854.6,244,4,-123.0,7.2,6.6
244,1.0,False,13,p,--,++,0.367722034454,-82.7,861.9,245,5,-123.0,7.3,3.6
245,1.0,False,13,p,--,++,0.317754030228,-74.4,870.2,246,6,-123.0,8.3,3.3
246,1.0,False,13,p,--,++,0.367718935013,-69.1,875.5,247,7,-123.0,5.3,4.5
247,1.0,False,13,p,--,++,0.367700099945,-62.4,882.2,248,8,-123.0,6.7,4.8
248,1.0,False,13,p,--,++,0.434362888336,-55.7,888.9,249,9,-123.0,6.7,5.6
249,1.0,False,13,p,--,++,0.367817878723,-49.7,894.9,250,10,-123.0,6.0,6.1
250,1.0,False,13,p,--,++,0.267693996429,-42.2,902.4,251,11,-123.0,7.5,5.6
251,1.0,False,13,p,--,++,0.317769050598,-34.2,910.4,252,12,-123.0,8.0,4.3
252,1.0,False,13,p,--,++,0.384541988373,-27.6,917.0,253,13,-123.0,6.6,3.4
253,1.0,False,13,p,--,++,0.351071834564,-19.0,925.6,254,14,-123.0,8.6,5.9
254,1.0,False,13,p,--,++,0.301028966904,-13.5,931.1,255,15,-123.0,5.5,5.8
255,1.0,False,13,p,--,++,0.368017911911,-8.3,936.3,256,16,-123.0,5.2,3.7
256,1.0,False,13,p,--,++,0.501476049423,-0.5,944.1,257,17,-123.0,7.8,3.5
257,1.0,False,13,p,--,++,0.467885971069,7.6,952.2,258,18,-123.0,8.1,5.0
258,1.0,False,13,p,--,++,0.501190900803,14.8,959.4,259,19,-123.0,7.2,4.4
259,1.0,False,13,p,--,++,0.501125097275,20.2,964.8,260,20,-123.0,5.4,3.2
260,0.0,False,14,q,+,--,0.985038042068,14.1,978.9,261,1,20.8,-3.4,-6.7
261,1.0,False,14,p,+,--,0.267642974854,9.5,974.3,262,2,20.8,-4.6,-6.8
262,1.0,False,14,p,+,--,0.334252119064,6.4,971.2,263,3,20.8,-3.1,-7.1
263,1.0,False,14,p,+,--,0.317917823792,1.8,966.6,264,4,20.8,-4.6,-5.2
264,1.0,False,14,p,+,--,0.734959125519,-5.2,959.6,265,5,20.8,-7.0,-7.7
265,1.0,False,14,p,+,--,0.618088960648,-9.8,955.0,266,6,20.8,-4.6,-6.2
266,1.0,False,14,p,+,--,0.534739017487,-14.7,950.1,267,7,20.8,-4.9,-10.1
267,1.0,False,14,p,+,--,0.50130200386,-21.0,943.8,268,8,20.8,-6.3,-5.4
268,1.0,False,14,p,+,--,0.284226894379,-27.8,937.0,269,9,20.8,-6.8,-7.3
269,1.0,False,14,p,+,--,0.384347915649,-31.4,933.4,270,10,20.8,-3.6,-7.7
270,1.0,False,14,p,+,--,0.434391021729,-36.7,928.1,271,11,20.8,-5.3,-6.4
271,1.0,False,14,p,+,--,0.334283828735,-41.9,922.9,272,12,20.8,-5.2,-8.8
272,1.0,False,14,p,+,--,0.484512090683,-44.1,920.7,273,13,20.8,-2.2,-6.9
273,1.0,False,14,p,+,--,0.63464307785,-45.7,919.1,274,14,20.8,-1.6,-8.8
274,1.0,False,14,p,+,--,0.368761062622,-53.4,911.4,275,15,20.8,-7.7,-6.6
275,1.0,False,14,p,+,--,0.334436893463,-57.1,907.7,276,16,20.8,-3.7,-7.5
276,1.0,False,14,p,+,--,0.350907087326,-62.3,902.5,277,17,20.8,-5.2,-6.9
277,1.0,False,14,p,+,--,0.351264953613,-66.7,898.1,278,18,20.8,-4.4,-7.7
278,1.0,False,14,p,+,--,0.451104879379,-72.2,892.6,279,19,20.8,-5.5,-8.8
279,1.0,False,14,p,+,--,0.334563970566,-77.5,887.3,280,20,20.8,-5.3,-7.5
280,1.0,False,15,p,++,++,0.667998075485,123.0,1010.3,281,1,118.0,5.0,7.2
281,0.0,False,15,q,++,++,0.201052904129,129.2,1016.5,282,2,118.0,6.5,6.2
282,0.0,False,15,q,++,++,0.284319162369,133.7,1021.0,283,3,118.0,8.0,4.5
283,1.0,False,15,p,++,++,0.250968933105,142.0,1029.3,284,4,118.0,8.3,4.2
284,1.0,False,15,p,++,++,0.351024866104,149.8,1037.1,285,5,118.0,7.8,5.9
285,1.0,False,15,p,++,++,0.217449188232,156.5,1043.8,286,6,118.0,6.7,3.8
286,1.0,False,15,p,++,++,0.284357070923,163.4,1050.7,287,7,118.0,6.9,6.1
287,1.0,False,15,p,++,++,0.284502983093,171.9,1059.2,288,8,118.0,8.5,4.9
288,1.0,False,15,p,++,++,0.367641925812,179.1,1066.4,289,9,118.0,7.2,3.3
289,1.0,False,15,p,++,++,0.284201860428,188.6,1075.9,290,10,118.0,9.5,4.5
290,1.0,False,15,p,++,++,0.384503126144,196.6,1083.9,291,11,118.0,8.0,6.1
291,1.0,False,15,p,++,++,0.284265041351,206.2,1093.5,292,12,118.0,9.6,5.7
292,1.0,False,15,p,++,++,0.317740917206,214.7,1102.0,293,13,118.0,8.5,4.7
293,1.0,False,15,p,++,++,0.201059103012,221.0,1108.3,294,14,118.0,6.3,5.4
294,1.0,False,15,p,++,++,0.601387023926,229.6,1116.9,295,15,118.0,8.6,5.0
295,1.0,False,15,p,++,++,0.401108026505,235.6,1122.9,296,16,118.0,6.0,3.1
296,1.0,False,15,p,++,++,0.484422922134,243.0,1130.3,297,17,118.0,7.4,4.9
297,1.0,False,15,p,++,++,0.484615087509,248.2,1135.5,298,18,118.0,5.2,3.0
298,1.0,False,15,p,++,++,0.250848054886,255.5,1142.8,299,19,118.0,7.3,5.9
299,1.0,False,15,p,++,++,0.434525966644,263.5,1150.8,300,20,118.0,8.0,4.1
300,0.0,True,16,p,+,+,0.801465988159,21.5,1172.3,301,1,20.4,1.0,1.1
301,0.0,True,16,p,+,+,0.217623949051,22.7,1173.5,302,2,20.4,1.1,1.2
302,0.0,True,16,p,+,+,0.351071834564,23.7,1174.5,303,3,20.4,0.9,1.0
303,0.0,True,16,p,+,+,0.267629861832,24.8,1175.6,304,4,20.4,1.0,1.1
304,0.0,True,16,p,+,+,0.485626935959,25.8,1176.6,305,5,20.4,0.8,1.0
305,0.0,True,16,p,+,+,0.317914962769,27.2,1178.0,306,6,20.4,1.1,1.4
306,0.0,True,16,p,+,+,0.234241962433,28.3,1179.1,307,7,20.4,1.0,1.1
307,0.0,True,16,p,+,+,0.401272058487,29.3,1180.1,308,8,20.4,1.1,1.0
308,0.0,True,16,p,+,+,0.284226894379,30.0,1180.8,309,9,20.4,1.0,0.7
309,0.0,True,16,p,+,+,0.217606067657,30.8,1181.6,310,10,20.4,1.2,0.8
310,1.0,True,16,q,+,+,0.28428196907,32.1,1182.9,311,11,20.4,1.3,0.7
311,1.0,True,16,q,+,+,0.284571886063,32.9,1183.7,312,12,20.4,0.8,0.8
312,1.0,True,16,q,+,+,0.301069021225,34.0,1184.8,313,13,20.4,1.1,0.9
313,1.0,True,16,q,+,+,0.518085956573,35.1,1185.9,314,14,20.4,1.1,1.2
314,1.0,True,16,q,+,+,0.334275007248,36.1,1186.9,315,15,20.4,1.0,0.9
315,1.0,True,16,q,+,+,0.267577171326,37.4,1188.2,316,16,20.4,1.3,0.7
316,1.0,True,16,q,+,+,0.484566926956,38.6,1189.4,317,17,20.4,1.2,1.1
317,1.0,True,16,q,+,+,0.301279783249,39.8,1190.6,318,18,20.4,1.2,1.2
318,1.0,True,16,q,+,+,0.351054191589,40.8,1191.6,319,19,20.4,1.0,1.1
319,1.0,True,16,q,+,+,0.467800855637,0.0,1026.0,320,20,20.4,0.7,1.0
