,accuracy,better_option_left,block_number,choice_key,reference_IV,reward_IV,rt,running_score_block,running_score_experiment,trial,trial_block,reference_block,reward_trial_better_option,reward_trial_worse_option
0,,True,1,,-,+,3.00317907333,-20.0,1006.0,1,1,-21.0,1.4,1.0
1,,True,1,,-,+,3.00326514244,-19.3,1006.7,2,2,-21.0,0.7,1.0
2,,True,1,,-,+,3.0032479763,-18.3,1007.7,3,3,-21.0,1.1,1.0
3,1.0,True,1,q,-,+,0.734884023666,-17.1,1008.9,4,4,-21.0,1.2,1.0
4,1.0,True,1,q,-,+,0.551452875137,-16.3,1009.7,5,5,-21.0,0.8,1.0
5,1.0,True,1,q,-,+,0.517847061157,-14.9,1011.1,6,6,-21.0,1.4,1.3
6,0.0,True,1,p,-,+,0.28456401825,-14.0,1012.0,7,7,-21.0,1.4,0.9
7,1.0,True,1,q,-,+,0.334414958954,-12.8,1013.2,8,8,-21.0,1.2,1.2
8,0.0,True,1,p,-,+,0.351091861725,-12.0,1014.0,9,9,-21.0,1.3,0.8
9,0.0,True,1,p,-,+,0.252262830734,-11.3,1014.7,10,10,-21.0,1.3,0.7
10,0.0,True,1,p,-,+,0.250896930695,-10.4,1015.6,11,11,-21.0,0.8,0.9
11,0.0,True,1,p,-,+,0.351034879684,-9.3,1016.7,12,12,-21.0,1.1,1.1
12,0.0,True,1,p,-,+,0.234375,-9.0,1017.0,13,13,-21.0,1.5,0.3
13,1.0,True,1,q,-,+,0.284268856049,-7.7,1018.3,14,14,-21.0,1.3,1.0
14,1.0,True,1,q,-,+,0.551161050797,-6.8,1019.2,15,15,-21.0,0.9,0.9
15,0.0,True,1,p,-,+,0.235280990601,-6.0,1020.0,16,16,-21.0,0.7,0.8
16,1.0,True,1,q,-,+,0.217544078827,-4.6,1021.4,17,17,-21.0,1.4,1.1
17,0.0,True,1,p,-,+,0.267825841904,-3.6,1022.4,18,18,-21.0,1.2,1.0
18,1.0,True,1,q,-,+,0.317836999893,-2.4,1023.6,19,19,-21.0,1.2,1.0
19,1.0,True,1,q,-,+,0.334407806396,-1.6,1024.4,20,20,-21.0,0.8,1.0
20,1.0,False,2,p,+,+,0.450998783112,20.8,1045.2,21,1,19.7,1.1,0.9
21,1.0,False,2,p,+,+,0.28430390358,21.7,1046.1,22,2,19.7,0.9,1.0
22,1.0,False,2,p,+,+,0.284282922745,23.1,1047.5,23,3,19.7,1.4,0.7
23,0.0,False,2,q,+,+,0.250988006592,24.5,1048.9,24,4,19.7,1.1,1.4
24,1.0,False,2,p,+,+,0.284343004227,25.6,1050.0,25,5,19.7,1.1,1.1
25,0.0,False,2,q,+,+,0.351088047028,26.7,1051.1,26,6,19.7,1.1,1.1
26,0.0,False,2,q,+,+,0.317949056625,27.1,1051.5,27,7,19.7,1.2,0.4
27,0.0,False,2,q,+,+,0.284378051758,28.1,1052.5,28,8,19.7,0.9,1.0
28,1.0,False,2,p,+,+,0.251071929932,29.0,1053.4,29,9,19.7,0.9,1.0
29,0.0,False,2,q,+,+,0.350978851318,29.6,1054.0,30,10,19.7,1.3,0.6
30,1.0,False,2,p,+,+,0.584675073624,30.9,1055.3,31,11,19.7,1.3,0.7
31,1.0,False,2,p,+,+,0.284408092499,32.1,1056.5,32,12,19.7,1.2,1.0
32,0.0,False,2,q,+,+,0.284329891205,33.1,1057.5,33,13,19.7,0.8,1.0
33,1.0,False,2,p,+,+,0.250936031342,33.8,1058.2,34,14,19.7,0.7,0.7
34,1.0,False,2,p,+,+,0.267695188522,34.8,1059.2,35,15,19.7,1.0,0.7
35,0.0,False,2,q,+,+,0.251994848251,35.9,1060.3,36,16,19.7,1.1,1.1
36,0.0,False,2,q,+,+,0.267693042755,36.9,1061.3,37,17,19.7,1.1,1.0
37,1.0,False,2,p,+,+,0.200843811035,38.0,1062.4,38,18,19.7,1.1,0.6
38,1.0,False,2,p,+,+,0.250869989395,39.2,1063.6,39,19,19.7,1.2,0.8
39,1.0,False,2,p,+,+,0.968356847763,40.0,1064.4,40,20,19.7,0.8,1.0
40,1.0,True,3,q,++,++,0.30096912384,119.4,1183.8,41,1,113.0,6.4,3.2
41,1.0,True,3,q,++,++,0.534550189972,125.1,1189.5,42,2,113.0,5.7,5.1
42,0.0,True,3,p,++,++,0.351073026657,131.6,1196.0,43,3,113.0,6.3,6.5
43,1.0,True,3,q,++,++,0.335321903229,138.6,1203.0,44,4,113.0,7.0,4.2
44,1.0,True,3,q,++,++,0.367855072021,146.1,1210.5,45,5,113.0,7.5,3.8
45,1.0,True,3,q,++,++,0.30110001564,150.2,1214.6,46,6,113.0,4.1,3.8
46,0.0,True,3,p,++,++,0.267582893372,154.9,1219.3,47,7,113.0,6.4,4.7
47,0.0,True,3,p,++,++,0.0840618610382,159.0,1223.4,48,8,113.0,8.0,4.1
48,0.0,True,3,p,++,++,0.267903089523,163.1,1227.5,49,9,113.0,6.4,4.1
49,1.0,True,3,q,++,++,0.267887830734,171.3,1235.7,50,10,113.0,8.2,5.3
50,0.0,True,3,p,++,++,0.217334985733,176.6,1241.0,51,11,113.0,8.4,5.3
51,0.0,True,3,p,++,++,0.0841269493103,181.8,1246.2,52,12,113.0,6.6,5.2
52,1.0,True,3,q,++,++,0.284273147583,188.9,1253.3,53,13,113.0,7.1,5.3
53,1.0,True,3,q,++,++,0.25091791153,197.4,1261.8,54,14,113.0,8.5,5.9
54,1.0,True,3,q,++,++,0.284232139587,204.7,1269.1,55,15,113.0,7.3,4.5
55,1.0,True,3,q,++,++,0.267683029175,210.2,1274.6,56,16,113.0,5.5,5.7
56,1.0,True,3,q,++,++,0.250982046127,217.7,1282.1,57,17,113.0,7.5,3.6
57,1.0,True,3,q,++,++,0.334389209747,224.9,1289.3,58,18,113.0,7.2,3.7
58,1.0,True,3,q,++,++,0.301184892654,231.2,1295.6,59,19,113.0,6.3,4.6
59,1.0,True,3,q,++,++,0.250990867615,238.2,1302.6,60,20,113.0,7.0,2.1
60,1.0,False,4,p,+,++,0.601253986359,27.6,1330.2,61,1,20.9,6.7,4.4
61,1.0,False,4,p,+,++,0.284427881241,35.1,1337.7,62,2,20.9,7.5,6.0
62,1.0,False,4,p,+,++,0.28435921669,42.0,1344.6,63,3,20.9,6.9,4.6
63,1.0,False,4,p,+,++,0.234215974808,47.6,1350.2,64,4,20.9,5.6,4.3
64,1.0,False,4,p,+,++,0.234272003174,55.5,1358.1,65,5,20.9,7.9,5.5
65,1.0,False,4,p,+,++,0.234112977982,62.5,1365.1,66,6,20.9,7.0,6.1
66,1.0,False,4,p,+,++,0.301269054413,70.5,1373.1,67,7,20.9,8.0,2.9
67,1.0,False,4,p,+,++,0.267812013626,78.1,1380.7,68,8,20.9,7.6,5.7
68,1.0,False,4,p,+,++,0.284327983856,84.1,1386.7,69,9,20.9,6.0,4.7
69,1.0,False,4,p,+,++,0.250823020935,89.5,1392.1,70,10,20.9,5.4,3.6
70,1.0,False,4,p,+,++,0.284235954285,97.2,1399.8,71,11,20.9,7.7,6.4
71,1.0,False,4,p,+,++,0.250910997391,105.3,1407.9,72,12,20.9,8.1,5.7
72,1.0,False,4,p,+,++,0.267853021622,112.1,1414.7,73,13,20.9,6.8,6.7
73,1.0,False,4,p,+,++,0.267862796783,119.3,1421.9,74,14,20.9,7.2,6.3
74,1.0,False,4,p,+,++,0.234210014343,125.6,1428.2,75,15,20.9,6.3,3.2
75,1.0,False,4,p,+,++,0.267535924911,133.2,1435.8,76,16,20.9,7.6,4.2
76,1.0,False,4,p,+,++,0.267511844635,141.1,1443.7,77,17,20.9,7.9,4.5
77,1.0,False,4,p,+,++,0.11757683754,147.6,1450.2,78,18,20.9,6.5,5.4
78,1.0,False,4,p,+,++,0.334638118744,155.0,1457.6,79,19,20.9,7.4,4.8
79,1.0,False,4,p,+,++,0.3010430336,160.5,1463.1,80,20,20.9,5.5,3.1
80,1.0,True,5,q,-,--,0.668005228043,-23.7,1439.4,81,1,-18.3,-5.4,-6.3
81,1.0,True,5,q,-,--,0.317823886871,-28.3,1434.8,82,2,-18.3,-4.6,-5.6
82,1.0,True,5,q,-,--,0.234398841858,-34.2,1428.9,83,3,-18.3,-5.9,-7.8
83,1.0,True,5,q,-,--,0.217545986176,-38.8,1424.3,84,4,-18.3,-4.6,-7.1
84,1.0,True,5,q,-,--,0.30105805397,-44.6,1418.5,85,5,-18.3,-5.8,-9.6
85,1.0,True,5,q,-,--,0.235368013382,-48.8,1414.3,86,6,-18.3,-4.2,-7.1
86,1.0,True,5,q,-,--,0.23406291008,-55.2,1407.9,87,7,-18.3,-6.4,-6.4
87,1.0,True,5,q,-,--,0.235487937927,-61.3,1401.8,88,8,-18.3,-6.1,-8.8
88,1.0,True,5,q,-,--,0.250972986221,-66.9,1396.2,89,9,-18.3,-5.6,-7.1
89,1.0,True,5,q,-,--,0.217621088028,-71.4,1391.7,90,10,-18.3,-4.5,-5.1
90,1.0,True,5,q,-,--,0.26762509346,-74.9,1388.2,91,11,-18.3,-3.5,-6.3
91,1.0,True,5,q,-,--,0.234231948853,-79.9,1383.2,92,12,-18.3,-5.0,-6.0
92,1.0,True,5,q,-,--,0.251003980637,-84.9,1378.2,93,13,-18.3,-5.0,-5.8
93,1.0,True,5,q,-,--,0.317714929581,-88.8,1374.3,94,14,-18.3,-3.9,-6.4
94,1.0,True,5,q,-,--,0.535514831543,-91.4,1371.7,95,15,-18.3,-2.6,-6.5
95,1.0,True,5,q,-,--,0.284394979477,-97.9,1365.2,96,16,-18.3,-6.5,-6.6
96,1.0,True,5,q,-,--,0.267865896225,-100.9,1362.2,97,17,-18.3,-3.0,-5.3
97,1.0,True,5,q,-,--,0.217634916306,-105.6,1357.5,98,18,-18.3,-4.7,-8.7
98,1.0,True,5,q,-,--,0.251308917999,-109.8,1353.3,99,19,-18.3,-4.2,-7.1
99,1.0,True,5,q,-,--,0.367620944977,-114.3,1348.8,100,20,-18.3,-4.5,-4.1
100,0.0,True,6,p,+,--,0.38433098793,13.3,1362.1,101,1,19.4,-1.3,-6.1
101,1.0,True,6,q,+,--,0.234265089035,7.7,1356.5,102,2,19.4,-5.6,-9.8
102,1.0,True,6,q,+,--,0.21750998497,5.9,1354.7,103,3,19.4,-1.8,-9.8
103,1.0,True,6,q,+,--,0.417846918106,1.2,1350.0,104,4,19.4,-4.7,-5.6
104,1.0,True,6,q,+,--,0.517866134644,-3.1,1345.7,105,5,19.4,-4.3,-8.3
105,1.0,True,6,q,+,--,0.668171882629,-6.4,1342.4,106,6,19.4,-3.3,-7.3
106,1.0,True,6,q,+,--,0.267637014389,-12.1,1336.7,107,7,19.4,-5.7,-6.4
107,1.0,True,6,q,+,--,0.28458404541,-17.2,1331.6,108,8,19.4,-5.1,-7.0
108,1.0,True,6,q,+,--,0.267581939697,-21.5,1327.3,109,9,19.4,-4.3,-7.0
109,1.0,True,6,q,+,--,0.267645835876,-25.0,1323.8,110,10,19.4,-3.5,-7.7
110,1.0,True,6,q,+,--,0.300940990448,-28.5,1320.3,111,11,19.4,-3.5,-8.0
111,1.0,True,6,q,+,--,0.234338998795,-33.3,1315.5,112,12,19.4,-4.8,-7.1
112,1.0,True,6,q,+,--,0.23432803154,-38.4,1310.4,113,13,19.4,-5.1,-8.1
113,1.0,True,6,q,+,--,0.184270858765,-43.2,1305.6,114,14,19.4,-4.8,-6.0
114,1.0,True,6,q,+,--,0.317744970322,-49.8,1299.0,115,15,19.4,-6.6,-6.1
115,1.0,True,6,q,+,--,0.267652988434,-56.6,1292.2,116,16,19.4,-6.8,-6.2
116,0.0,True,6,p,+,--,0.250999927521,-62.3,1286.5,117,17,19.4,-5.0,-5.7
117,1.0,True,6,q,+,--,0.234210968018,-64.6,1284.2,118,18,19.4,-2.3,-9.3
118,1.0,True,6,q,+,--,0.384291172028,-69.0,1279.8,119,19,19.4,-4.4,-7.4
119,1.0,True,6,q,+,--,0.234369039536,-75.1,1273.7,120,20,19.4,-6.1,-8.6
120,1.0,True,7,q,--,--,0.751314878464,-132.5,1141.2,121,1,-127.0,-5.5,-6.2
121,1.0,True,7,q,--,--,0.317649841309,-135.9,1137.8,122,2,-127.0,-3.4,-8.3
122,1.0,True,7,q,--,--,0.200737953186,-142.2,1131.5,123,3,-127.0,-6.3,-6.6
123,1.0,True,7,q,--,--,0.217535018921,-147.1,1126.6,124,4,-127.0,-4.9,-7.5
124,1.0,True,7,q,--,--,0.284260988235,-150.9,1122.8,125,5,-127.0,-3.8,-6.9
125,1.0,True,7,q,--,--,0.234545946121,-156.6,1117.1,126,6,-127.0,-5.7,-5.8
126,1.0,True,7,q,--,--,0.217614173889,-161.9,1111.8,127,7,-127.0,-5.3,-8.1
127,1.0,True,7,q,--,--,0.217548131943,-167.6,1106.1,128,8,-127.0,-5.7,-5.4
128,1.0,True,7,q,--,--,0.118343114853,-174.2,1099.5,129,9,-127.0,-6.6,-6.5
129,1.0,True,7,q,--,--,0.167532920837,-178.2,1095.5,130,10,-127.0,-4.0,-7.7
130,1.0,True,7,q,--,--,0.184130191803,-185.6,1088.1,131,11,-127.0,-7.4,-5.5
131,1.0,True,7,q,--,--,0.0340490341187,-191.4,1082.3,132,12,-127.0,-5.8,-8.2
132,1.0,True,7,q,--,--,0.234257936478,-197.5,1076.2,133,13,-127.0,-6.1,-5.7
133,0.0,True,7,p,--,--,0.234270811081,-203.5,1070.2,134,14,-127.0,-4.5,-6.0
134,1.0,True,7,q,--,--,0.234483957291,-208.9,1064.8,135,15,-127.0,-5.4,-7.0
135,1.0,True,7,q,--,--,0.234265089035,-212.7,1061.0,136,16,-127.0,-3.8,-6.3
136,1.0,True,7,q,--,--,0.267685890198,-217.7,1056.0,137,17,-127.0,-5.0,-7.7
137,1.0,True,7,q,--,--,0.284353971481,-221.9,1051.8,138,18,-127.0,-4.2,-7.3
138,1.0,True,7,q,--,--,0.217586994171,-226.9,1046.8,139,19,-127.0,-5.0,-6.3
139,1.0,True,7,q,--,--,0.167504072189,-232.8,1040.9,140,20,-127.0,-5.9,-8.2
140,0.0,True,8,p,--,+,0.818247079849,-109.1,931.8,141,1,-110.0,1.1,0.9
141,0.0,True,8,p,--,+,0.267693996429,-108.4,932.5,142,2,-110.0,0.9,0.7
142,1.0,True,8,q,--,+,0.301019906998,-107.1,933.8,143,3,-110.0,1.3,0.9
143,1.0,True,8,q,--,+,0.234143018723,-106.0,934.9,144,4,-110.0,1.1,0.6
144,1.0,True,8,q,--,+,0.200961112976,-104.7,936.2,145,5,-110.0,1.3,0.8
145,1.0,True,8,q,--,+,0.234069824219,-103.6,937.3,146,6,-110.0,1.1,0.9
146,1.0,True,8,q,--,+,0.3843998909,-102.5,938.4,147,7,-110.0,1.1,0.9
147,1.0,True,8,q,--,+,0.250962018967,-101.5,939.4,148,8,-110.0,1.0,1.0
148,1.0,True,8,q,--,+,0.250972032547,-100.6,940.3,149,9,-110.0,0.9,1.0
149,1.0,True,8,q,--,+,0.334319114685,-99.6,941.3,150,10,-110.0,1.0,1.1
150,0.0,True,8,p,--,+,0.267789125443,-98.3,942.6,151,11,-110.0,1.1,1.3
151,0.0,True,8,p,--,+,0.401206016541,-97.3,943.6,152,12,-110.0,1.1,1.0
152,0.0,True,8,p,--,+,0.367724180222,-96.4,944.5,153,13,-110.0,1.1,0.9
153,1.0,True,8,q,--,+,0.217766046524,-95.3,945.6,154,14,-110.0,1.1,0.8
154,1.0,True,8,q,--,+,0.334553003311,-94.0,946.9,155,15,-110.0,1.3,1.0
155,1.0,True,8,q,--,+,0.234249830246,-93.0,947.9,156,16,-110.0,1.0,1.0
156,1.0,True,8,q,--,+,0.30103302002,-91.9,949.0,157,17,-110.0,1.1,0.7
157,1.0,True,8,q,--,+,0.267652988434,-90.9,950.0,158,18,-110.0,1.0,1.0
158,1.0,True,8,q,--,+,0.267569065094,-89.6,951.3,159,19,-110.0,1.3,0.8
159,1.0,True,8,q,--,+,0.217483043671,-88.5,952.4,160,20,-110.0,1.1,1.2
160,0.0,False,9,q,-,-,0.768126010895,-20.5,931.9,161,1,-19.6,-0.9,-0.9
161,0.0,False,9,q,-,-,0.234312057495,-21.6,930.8,162,2,-19.6,-1.1,-1.1
162,0.0,False,9,q,-,-,0.217581987381,-22.7,929.7,163,3,-19.6,-1.0,-1.1
163,0.0,False,9,q,-,-,0.0839669704437,-23.9,928.5,164,4,-19.6,-1.2,-1.2
164,0.0,False,9,q,-,-,0.21846985817,-25.4,927.0,165,5,-19.6,-1.1,-1.5
165,1.0,False,9,p,-,-,0.234189033508,-26.3,926.1,166,6,-19.6,-0.9,-1.3
166,1.0,False,9,p,-,-,0.200966119766,-27.5,924.9,167,7,-19.6,-1.2,-1.4
167,1.0,False,9,p,-,-,0.250950098038,-28.5,923.9,168,8,-19.6,-1.0,-1.2
168,1.0,False,9,p,-,-,0.251244068146,-29.4,923.0,169,9,-19.6,-0.9,-1.2
169,1.0,False,9,p,-,-,0.284377098083,-30.2,922.2,170,10,-19.6,-0.8,-1.2
170,1.0,False,9,p,-,-,0.367661952972,-31.3,921.1,171,11,-19.6,-1.1,-1.2
171,1.0,False,9,p,-,-,0.451122999191,-32.3,920.1,172,12,-19.6,-1.0,-1.0
172,1.0,False,9,p,-,-,0.351246118546,-33.4,919.0,173,13,-19.6,-1.1,-1.5
173,1.0,False,9,p,-,-,0.434430122375,-34.3,918.1,174,14,-19.6,-0.9,-1.0
174,1.0,False,9,p,-,-,0.251009941101,-34.9,917.5,175,15,-19.6,-0.6,-1.2
175,1.0,False,9,p,-,-,0.384451150894,-35.6,916.8,176,16,-19.6,-0.7,-1.1
176,1.0,False,9,p,-,-,0.300880908966,-36.2,916.2,177,17,-19.6,-0.6,-1.3
177,1.0,False,9,p,-,-,0.300897836685,-37.0,915.4,178,18,-19.6,-0.8,-1.2
178,1.0,False,9,p,-,-,0.351089954376,-37.8,914.6,179,19,-19.6,-0.8,-1.0
179,1.0,False,9,p,-,-,0.317588806152,-39.0,913.4,180,20,-19.6,-1.2,-1.4
180,0.0,True,10,p,--,-,0.634557008743,-114.1,799.3,181,1,-113.0,-0.8,-1.1
181,1.0,True,10,q,--,-,0.417938947678,-114.9,798.5,182,2,-113.0,-0.8,-1.2
182,1.0,True,10,q,--,-,0.284504890442,-115.7,797.7,183,3,-113.0,-0.8,-1.2
183,1.0,True,10,q,--,-,0.26765704155,-116.7,796.7,184,4,-113.0,-1.0,-1.3
184,1.0,True,10,q,--,-,0.217571973801,-117.7,795.7,185,5,-113.0,-1.0,-1.2
185,1.0,True,10,q,--,-,0.234436988831,-118.7,794.7,186,6,-113.0,-1.0,-1.0
186,1.0,True,10,q,--,-,0.267621994019,-119.4,794.0,187,7,-113.0,-0.7,-0.7
187,1.0,True,10,q,--,-,0.250975131989,-120.2,793.2,188,8,-113.0,-0.8,-0.9
188,1.0,True,10,q,--,-,0.200968027115,-120.8,792.6,189,9,-113.0,-0.6,-0.8
189,1.0,True,10,q,--,-,0.250978946686,-121.7,791.7,190,10,-113.0,-0.9,-1.1
190,1.0,True,10,q,--,-,0.250972986221,-122.6,790.8,191,11,-113.0,-0.9,-0.9
191,1.0,True,10,q,--,-,0.217643976212,-123.0,790.4,192,12,-113.0,-0.4,-0.6
192,1.0,True,10,q,--,-,0.235238075256,-123.8,789.6,193,13,-113.0,-0.8,-1.0
193,1.0,True,10,q,--,-,0.250939846039,-124.8,788.6,194,14,-113.0,-1.0,-1.1
194,1.0,True,10,q,--,-,0.267821073532,-125.4,788.0,195,15,-113.0,-0.6,-0.6
195,1.0,True,10,q,--,-,0.434557914734,-126.2,787.2,196,16,-113.0,-0.8,-1.0
196,1.0,True,10,q,--,-,0.317707061768,-127.2,786.2,197,17,-113.0,-1.0,-0.9
197,1.0,True,10,q,--,-,0.234363079071,-127.9,785.5,198,18,-113.0,-0.7,-0.8
198,1.0,True,10,q,--,-,0.234252929688,-128.9,784.5,199,19,-113.0,-1.0,-1.1
199,1.0,True,10,q,--,-,0.151000976562,-129.7,783.7,200,20,-113.0,-0.8,-1.4
200,0.0,True,11,p,++,+,0.50110411644,118.8,902.5,201,1,118.0,1.2,0.8
201,0.0,True,11,p,++,+,0.234542131424,119.7,903.4,202,2,118.0,1.1,0.9
202,1.0,True,11,q,++,+,0.234278917313,120.9,904.6,203,3,118.0,1.2,0.8
203,1.0,True,11,q,++,+,0.317906141281,122.0,905.7,204,4,118.0,1.1,0.8
204,1.0,True,11,q,++,+,0.35112285614,122.9,906.6,205,5,118.0,0.9,1.0
205,1.0,True,11,q,++,+,0.234436988831,124.3,908.0,206,6,118.0,1.4,0.9
206,1.0,True,11,q,++,+,0.284311056137,125.6,909.3,207,7,118.0,1.3,1.1
207,1.0,True,11,q,++,+,0.300981044769,127.1,910.8,208,8,118.0,1.5,0.7
208,1.0,True,11,q,++,+,0.301222801208,128.2,911.9,209,9,118.0,1.1,0.8
209,1.0,True,11,q,++,+,0.367769956589,129.5,913.2,210,10,118.0,1.3,1.0
210,1.0,True,11,q,++,+,0.568062067032,130.6,914.3,211,11,118.0,1.1,1.1
211,1.0,True,11,q,++,+,0.434433937073,131.5,915.2,212,12,118.0,0.9,0.8
212,1.0,True,11,q,++,+,0.41783618927,132.8,916.5,213,13,118.0,1.3,0.6
213,1.0,True,11,q,++,+,0.701370000839,133.9,917.6,214,14,118.0,1.1,1.0
214,1.0,True,11,q,++,+,0.300986766815,135.0,918.7,215,15,118.0,1.1,1.1
215,1.0,True,11,q,++,+,0.60151386261,136.1,919.8,216,16,118.0,1.1,0.7
216,1.0,True,11,q,++,+,0.968391895294,137.0,920.7,217,17,118.0,0.9,0.9
217,1.0,True,11,q,++,+,0.567966222763,138.2,921.9,218,18,118.0,1.2,1.0
218,1.0,True,11,q,++,+,0.301012992859,139.4,923.1,219,19,118.0,1.2,0.5
219,1.0,True,11,q,++,+,0.317631959915,140.5,924.2,220,20,118.0,1.1,0.9
220,0.0,False,12,q,+,-,0.468996047974,18.6,942.8,221,1,20.0,-0.8,-1.4
221,1.0,False,12,p,+,-,0.0674090385437,17.4,941.6,222,2,20.0,-1.2,-0.9
222,1.0,False,12,p,+,-,0.234149932861,16.5,940.7,223,3,20.0,-0.9,-1.0
223,1.0,False,12,p,+,-,0.251023054123,15.2,939.4,224,4,20.0,-1.3,-0.8
224,0.0,False,12,q,+,-,0.284487962723,14.1,938.3,225,5,20.0,-1.2,-1.1
225,0.0,False,12,q,+,-,0.267763853073,13.1,937.3,226,6,20.0,-1.1,-1.0
226,0.0,False,12,q,+,-,0.234432935715,12.2,936.4,227,7,20.0,-0.7,-0.9
227,0.0,False,12,q,+,-,0.234341859818,11.1,935.3,228,8,20.0,-0.9,-1.1
228,1.0,False,12,p,+,-,0.184080839157,10.0,934.2,229,9,20.0,-1.1,-1.2
229,1.0,False,12,p,+,-,0.267823934555,8.6,932.8,230,10,20.0,-1.4,-1.1
230,1.0,False,12,p,+,-,0.201050043106,7.7,931.9,231,11,20.0,-0.9,-1.0
231,1.0,False,12,p,+,-,0.201100111008,6.8,931.0,232,12,20.0,-0.9,-1.4
232,1.0,False,12,p,+,-,0.317872047424,5.8,930.0,233,13,20.0,-1.0,-1.4
233,1.0,False,12,p,+,-,0.317504882812,4.9,929.1,234,14,20.0,-0.9,-0.9
234,1.0,False,12,p,+,-,0.55148601532,3.9,928.1,235,15,20.0,-1.0,-1.1
235,1.0,False,12,p,+,-,0.317701101303,3.0,927.2,236,16,20.0,-0.9,-1.1
236,1.0,False,12,p,+,-,0.317661046982,2.3,926.5,237,17,20.0,-0.7,-1.0
237,1.0,False,12,p,+,-,0.334367036819,1.5,925.7,238,18,20.0,-0.8,-1.1
238,1.0,False,12,p,+,-,0.434467077255,0.6,924.8,239,19,20.0,-0.9,-1.2
239,1.0,False,12,p,+,-,0.43498301506,-0.2,924.0,240,20,20.0,-0.8,-0.9
240,1.0,False,13,p,++,--,0.401010990143,117.7,1041.7,241,1,123.0,-5.3,-5.4
241,1.0,False,13,p,++,--,0.23423409462,113.3,1037.3,242,2,123.0,-4.4,-9.2
242,1.0,False,13,p,++,--,0.23429608345,108.0,1032.0,243,3,123.0,-5.3,-6.8
243,1.0,False,13,p,++,--,0.36777806282,104.1,1028.1,244,4,123.0,-3.9,-6.7
244,1.0,False,13,p,++,--,0.301008939743,98.4,1022.4,245,5,123.0,-5.7,-7.3
245,1.0,False,13,p,++,--,0.384397983551,95.1,1019.1,246,6,123.0,-3.3,-7.0
246,1.0,False,13,p,++,--,0.250778913498,89.6,1013.6,247,7,123.0,-5.5,-8.0
247,1.0,False,13,p,++,--,0.284309148788,83.8,1007.8,248,8,123.0,-5.8,-7.4
248,1.0,False,13,p,++,--,0.301243066788,79.1,1003.1,249,9,123.0,-4.7,-6.4
249,1.0,False,13,p,++,--,0.217518091202,73.9,997.9,250,10,123.0,-5.2,-6.2
250,1.0,False,13,p,++,--,0.284427881241,68.2,992.2,251,11,123.0,-5.7,-5.4
251,1.0,False,13,p,++,--,0.384551048279,64.5,988.5,252,12,123.0,-3.7,-7.3
252,1.0,False,13,p,++,--,0.284245967865,60.9,984.9,253,13,123.0,-3.6,-7.5
253,1.0,False,13,p,++,--,0.568074941635,56.9,980.9,254,14,123.0,-4.0,-5.6
254,1.0,False,13,p,++,--,0.61820101738,49.8,973.8,255,15,123.0,-7.1,-7.9
255,1.0,False,13,p,++,--,0.234217882156,46.0,970.0,256,16,123.0,-3.8,-5.7
256,1.0,False,13,p,++,--,0.28429889679,41.8,965.8,257,17,123.0,-4.2,-7.8
257,1.0,False,13,p,++,--,1.45224690437,37.4,961.4,258,18,123.0,-4.4,-7.2
258,1.0,False,13,p,++,--,0.601627111435,34.5,958.5,259,19,123.0,-2.9,-6.0
259,1.0,False,13,p,++,--,0.451267957687,29.2,953.2,260,20,123.0,-5.3,-7.9
260,1.0,True,14,q,--,++,0.784821033478,-104.4,848.8,261,1,-110.0,5.6,4.6
261,1.0,True,14,q,--,++,0.234230041504,-96.4,856.8,262,2,-110.0,8.0,5.9
262,1.0,True,14,q,--,++,0.250847101212,-89.5,863.7,263,3,-110.0,6.9,5.5
263,1.0,True,14,q,--,++,0.117434978485,-84.2,869.0,264,4,-110.0,5.3,4.6
264,1.0,True,14,q,--,++,0.15083694458,-76.5,876.7,265,5,-110.0,7.7,5.9
265,1.0,True,14,q,--,++,0.28443312645,-69.0,884.2,266,6,-110.0,7.5,6.5
266,1.0,True,14,q,--,++,0.351032972336,-63.8,889.4,267,7,-110.0,5.2,1.8
267,1.0,True,14,q,--,++,0.317584037781,-56.8,896.4,268,8,-110.0,7.0,4.9
268,1.0,True,14,q,--,++,0.300851821899,-48.9,904.3,269,9,-110.0,7.9,5.6
269,1.0,True,14,q,--,++,0.300888061523,-43.0,910.2,270,10,-110.0,5.9,5.3
270,1.0,True,14,q,--,++,0.317955970764,-35.8,917.4,271,11,-110.0,7.2,4.6
271,1.0,True,14,q,--,++,0.367637872696,-27.7,925.5,272,12,-110.0,8.1,3.7
272,1.0,True,14,q,--,++,0.334367990494,-19.5,933.7,273,13,-110.0,8.2,3.6
273,1.0,True,14,q,--,++,0.334629058838,-14.4,938.8,274,14,-110.0,5.1,4.8
274,1.0,True,14,q,--,++,0.384587049484,-5.2,948.0,275,15,-110.0,9.2,6.0
275,1.0,True,14,q,--,++,0.267722129822,3.2,956.4,276,16,-110.0,8.4,6.0
276,1.0,True,14,q,--,++,0.284353971481,10.8,964.0,277,17,-110.0,7.6,4.2
277,1.0,True,14,q,--,++,0.351192951202,17.6,970.8,278,18,-110.0,6.8,6.5
278,1.0,True,14,q,--,++,0.417830944061,25.3,978.5,279,19,-110.0,7.7,8.9
279,1.0,True,14,q,--,++,0.200932979584,31.8,985.0,280,20,-110.0,6.5,5.6
280,1.0,True,15,q,-,++,0.701334953308,-15.2,969.8,281,1,-22.1,6.9,5.3
281,1.0,True,15,q,-,++,0.267697095871,-7.7,977.3,282,2,-22.1,7.5,3.4
282,1.0,True,15,q,-,++,0.30097413063,-0.9,984.1,283,3,-22.1,6.8,5.3
283,1.0,True,15,q,-,++,0.235446214676,6.5,991.5,284,4,-22.1,7.4,4.5
284,1.0,True,15,q,-,++,0.251176834106,12.4,997.4,285,5,-22.1,5.9,7.5
285,1.0,True,15,q,-,++,0.217547893524,21.1,1006.1,286,6,-22.1,8.7,7.7
286,1.0,True,15,q,-,++,0.250822067261,27.9,1012.9,287,7,-22.1,6.8,2.3
287,1.0,True,15,q,-,++,0.26888012886,34.3,1019.3,288,8,-22.1,6.4,5.0
288,1.0,True,15,q,-,++,0.267625808716,41.9,1026.9,289,9,-22.1,7.6,5.9
289,1.0,True,15,q,-,++,0.217564105988,49.7,1034.7,290,10,-22.1,7.8,4.2
290,1.0,True,15,q,-,++,0.401062965393,55.6,1040.6,291,11,-22.1,5.9,4.9
291,1.0,True,15,q,-,++,0.250902175903,63.5,1048.5,292,12,-22.1,7.9,4.6
292,1.0,True,15,q,-,++,0.267503023148,69.4,1054.4,293,13,-22.1,5.9,6.0
293,1.0,True,15,q,-,++,0.267605066299,76.5,1061.5,294,14,-22.1,7.1,5.5
294,1.0,True,15,q,-,++,0.267722845078,85.1,1070.1,295,15,-22.1,8.6,6.6
295,1.0,True,15,q,-,++,0.317919969559,91.4,1076.4,296,16,-22.1,6.3,5.4
296,1.0,True,15,q,-,++,0.367826938629,99.1,1084.1,297,17,-22.1,7.7,4.4
297,1.0,True,15,q,-,++,0.234419822693,105.7,1090.7,298,18,-22.1,6.6,4.0
298,1.0,True,15,q,-,++,0.367795944214,112.8,1097.8,299,19,-22.1,7.1,4.0
299,1.0,True,15,q,-,++,0.41804599762,120.1,1105.1,300,20,-22.1,7.3,5.8
300,0.0,True,16,p,++,-,0.617919921875,119.8,1224.9,301,1,121.0,-1.2,-1.2
301,0.0,True,16,p,++,-,0.284300088882,118.9,1224.0,302,2,121.0,-0.8,-0.9
302,0.0,True,16,p,++,-,0.250988960266,118.0,1223.1,303,3,121.0,-0.9,-0.9
303,0.0,True,16,p,++,-,0.234120130539,116.7,1221.8,304,4,121.0,-1.0,-1.3
304,1.0,True,16,q,++,-,0.234306812286,115.8,1220.9,305,5,121.0,-0.9,-0.8
305,1.0,True,16,q,++,-,0.234313964844,114.7,1219.8,306,6,121.0,-1.1,-1.4
306,1.0,True,16,q,++,-,0.234214067459,114.0,1219.1,307,7,121.0,-0.7,-1.3
307,1.0,True,16,q,++,-,0.267605066299,113.2,1218.3,308,8,121.0,-0.8,-1.1
308,1.0,True,16,q,++,-,0.351061105728,112.5,1217.6,309,9,121.0,-0.7,-0.8
309,1.0,True,16,q,++,-,0.201032161713,111.6,1216.7,310,10,121.0,-0.9,-1.0
310,1.0,True,16,q,++,-,0.334519147873,111.0,1216.1,311,11,121.0,-0.6,-0.7
311,1.0,True,16,q,++,-,0.251082897186,110.1,1215.2,312,12,121.0,-0.9,-0.8
312,1.0,True,16,q,++,-,0.234299898148,109.2,1214.3,313,13,121.0,-0.9,-1.4
313,1.0,True,16,q,++,-,0.218688011169,108.6,1213.7,314,14,121.0,-0.6,-1.3
314,1.0,True,16,q,++,-,0.217615127563,107.4,1212.5,315,15,121.0,-1.2,-1.4
315,1.0,True,16,q,++,-,0.251091957092,106.2,1211.3,316,16,121.0,-1.2,-1.2
316,1.0,True,16,q,++,-,0.234280109406,105.5,1210.6,317,17,121.0,-0.7,-1.1
317,1.0,True,16,q,++,-,0.517963886261,105.0,1210.1,318,18,121.0,-0.5,-1.2
318,1.0,True,16,q,++,-,0.484724998474,104.3,1209.4,319,19,121.0,-0.7,-1.1
319,1.0,True,16,q,++,-,0.384481191635,0.0,1026.0,320,20,121.0,-1.1,-1.2
