,accuracy,better_option_left,block_number,choice_key,reference_IV,reward_IV,rt,running_score_block,running_score_experiment,trial,trial_block,reference_block,reward_trial_better_option,reward_trial_worse_option
0,1.0,True,1,q,++,-,1.68578004837,123.9,1149.9,1,1,125.0,-1.1,-1.3
1,0.0,True,1,p,++,-,0.918344020844,122.9,1148.9,2,2,125.0,-0.9,-1.0
2,1.0,True,1,q,++,-,0.818242073059,121.9,1147.9,3,3,125.0,-1.0,-1.1
3,1.0,True,1,q,++,-,0.484571933746,120.9,1146.9,4,4,125.0,-1.0,-0.7
4,1.0,True,1,q,++,-,0.284331083298,120.1,1146.1,5,5,125.0,-0.8,-1.1
5,1.0,True,1,q,++,-,0.551252126694,119.1,1145.1,6,6,125.0,-1.0,-1.0
6,1.0,True,1,q,++,-,0.567969083786,118.3,1144.3,7,7,125.0,-0.8,-1.0
7,1.0,True,1,q,++,-,0.651420116425,117.2,1143.2,8,8,125.0,-1.1,-1.1
8,1.0,True,1,q,++,-,0.384418964386,116.3,1142.3,9,9,125.0,-0.9,-1.0
9,1.0,True,1,q,++,-,0.401039123535,115.4,1141.4,10,10,125.0,-0.9,-1.0
10,1.0,True,1,q,++,-,0.40118598938,114.4,1140.4,11,11,125.0,-1.0,-1.0
11,1.0,True,1,q,++,-,0.434517860413,113.5,1139.5,12,12,125.0,-0.9,-1.1
12,1.0,True,1,q,++,-,0.451164960861,112.8,1138.8,13,13,125.0,-0.7,-1.0
13,1.0,True,1,q,++,-,0.367774963379,112.0,1138.0,14,14,125.0,-0.8,-1.2
14,1.0,True,1,q,++,-,0.301234960556,111.2,1137.2,15,15,125.0,-0.8,-1.0
15,1.0,True,1,q,++,-,0.334326982498,110.0,1136.0,16,16,125.0,-1.2,-1.3
16,1.0,True,1,q,++,-,0.2354991436,109.4,1135.4,17,17,125.0,-0.6,-1.0
17,1.0,True,1,q,++,-,0.23427605629,108.3,1134.3,18,18,125.0,-1.1,-0.9
18,1.0,True,1,q,++,-,0.234191179276,107.1,1133.1,19,19,125.0,-1.2,-1.2
19,1.0,True,1,q,++,-,0.234246969223,106.1,1132.1,20,20,125.0,-1.0,-1.2
20,0.0,True,2,p,-,++,0.451398134232,-13.9,1118.2,21,1,-20.2,7.9,6.3
21,1.0,True,2,q,-,++,0.267646074295,-8.6,1123.5,22,2,-20.2,5.3,3.1
22,1.0,True,2,q,-,++,0.401139974594,-1.1,1131.0,23,3,-20.2,7.5,5.0
23,1.0,True,2,q,-,++,0.284357070923,6.6,1138.7,24,4,-20.2,7.7,5.0
24,1.0,True,2,q,-,++,0.234306097031,13.4,1145.5,25,5,-20.2,6.8,5.1
25,1.0,True,2,q,-,++,0.267809152603,20.7,1152.8,26,6,-20.2,7.3,6.5
26,1.0,True,2,q,-,++,0.234263181686,27.0,1159.1,27,7,-20.2,6.3,3.8
27,1.0,True,2,q,-,++,0.234186887741,33.8,1165.9,28,8,-20.2,6.8,5.9
28,1.0,True,2,q,-,++,0.217711925507,42.2,1174.3,29,9,-20.2,8.4,3.7
29,1.0,True,2,q,-,++,0.250894069672,49.8,1181.9,30,10,-20.2,7.6,3.2
30,1.0,True,2,q,-,++,0.250849962234,56.5,1188.6,31,11,-20.2,6.7,5.0
31,1.0,True,2,q,-,++,0.250938892365,63.8,1195.9,32,12,-20.2,7.3,5.4
32,1.0,True,2,q,-,++,0.317981958389,71.3,1203.4,33,13,-20.2,7.5,4.2
33,1.0,True,2,q,-,++,0.250983953476,74.3,1206.4,34,14,-20.2,3.0,4.1
34,1.0,True,2,q,-,++,0.234203100204,82.0,1214.1,35,15,-20.2,7.7,5.5
35,1.0,True,2,q,-,++,0.267729043961,88.3,1220.4,36,16,-20.2,6.3,6.8
36,1.0,True,2,q,-,++,0.0507111549377,96.2,1228.3,37,17,-20.2,7.9,4.8
37,0.0,True,2,p,-,++,0.267688989639,104.0,1236.1,38,18,-20.2,5.2,7.8
38,1.0,True,2,q,-,++,0.351172924042,110.9,1243.0,39,19,-20.2,6.9,6.3
39,0.0,True,2,p,-,++,0.284373998642,114.1,1246.2,40,20,-20.2,8.1,3.2
40,0.0,False,3,q,+,-,0.668255090714,18.6,1264.8,41,1,19.8,-1.4,-1.2
41,0.0,False,3,q,+,-,0.334342002869,17.5,1263.7,42,2,19.8,-0.7,-1.1
42,0.0,False,3,q,+,-,0.300893068314,16.4,1262.6,43,3,19.8,-0.5,-1.1
43,1.0,False,3,p,+,-,0.284362077713,15.4,1261.6,44,4,19.8,-1.0,-1.2
44,1.0,False,3,p,+,-,0.250847101212,14.4,1260.6,45,5,19.8,-1.0,-1.0
45,1.0,False,3,p,+,-,0.267548084259,13.6,1259.8,46,6,19.8,-0.8,-1.2
46,1.0,False,3,p,+,-,0.267699956894,12.5,1258.7,47,7,19.8,-1.1,-0.5
47,1.0,False,3,p,+,-,0.267555952072,11.6,1257.8,48,8,19.8,-0.9,-1.1
48,1.0,False,3,p,+,-,0.251168966293,10.9,1257.1,49,9,19.8,-0.7,-1.2
49,1.0,False,3,p,+,-,0.36789894104,9.9,1256.1,50,10,19.8,-1.0,-0.9
50,1.0,False,3,p,+,-,0.284243822098,9.0,1255.2,51,11,19.8,-0.9,-1.2
51,1.0,False,3,p,+,-,0.250966072083,8.1,1254.3,52,12,19.8,-0.9,-1.1
52,0.0,False,3,q,+,-,0.285275936127,7.4,1253.6,53,13,19.8,-0.4,-0.7
53,1.0,False,3,p,+,-,0.30107998848,6.3,1252.5,54,14,19.8,-1.1,-1.0
54,1.0,False,3,p,+,-,0.317836999893,5.2,1251.4,55,15,19.8,-1.1,-1.2
55,1.0,False,3,p,+,-,0.267894029617,4.3,1250.5,56,16,19.8,-0.9,-1.1
56,1.0,False,3,p,+,-,0.300884008408,2.9,1249.1,57,17,19.8,-1.4,-1.2
57,1.0,False,3,p,+,-,0.284312963486,2.0,1248.2,58,18,19.8,-0.9,-1.1
58,1.0,False,3,p,+,-,0.300903081894,1.1,1247.3,59,19,19.8,-0.9,-1.4
59,1.0,False,3,p,+,-,0.351085186005,-0.2,1246.0,60,20,19.8,-1.3,-0.9
60,0.0,True,4,p,++,--,0.73474407196,115.5,1361.5,61,1,124.0,-4.9,-8.5
61,1.0,True,4,q,++,--,0.568205118179,112.1,1358.1,62,2,124.0,-3.4,-4.8
62,1.0,True,4,q,++,--,0.317659854889,107.2,1353.2,63,3,124.0,-4.9,-6.4
63,1.0,True,4,q,++,--,0.35092997551,102.1,1348.1,64,4,124.0,-5.1,-5.6
64,1.0,True,4,q,++,--,0.284328937531,97.2,1343.2,65,5,124.0,-4.9,-8.6
65,1.0,True,4,q,++,--,0.334630012512,91.5,1337.5,66,6,124.0,-5.7,-6.8
66,1.0,True,4,q,++,--,0.33434009552,86.2,1332.2,67,7,124.0,-5.3,-7.9
67,1.0,True,4,q,++,--,0.301163911819,83.2,1329.2,68,8,124.0,-3.0,-8.6
68,1.0,True,4,q,++,--,0.317583084106,77.2,1323.2,69,9,124.0,-6.0,-6.3
69,1.0,True,4,q,++,--,0.334562778473,71.2,1317.2,70,10,124.0,-6.0,-4.5
70,1.0,True,4,q,++,--,0.284210920334,66.1,1312.1,71,11,124.0,-5.1,-6.3
71,1.0,True,4,q,++,--,0.284304141998,60.9,1306.9,72,12,124.0,-5.2,-5.2
72,1.0,True,4,q,++,--,0.35099697113,56.2,1302.2,73,13,124.0,-4.7,-8.2
73,1.0,True,4,q,++,--,0.451133966446,52.3,1298.3,74,14,124.0,-3.9,-7.2
74,1.0,True,4,q,++,--,0.417710065842,49.2,1295.2,75,15,124.0,-3.1,-10.6
75,1.0,True,4,q,++,--,0.284271001816,45.5,1291.5,76,16,124.0,-3.7,-6.4
76,1.0,True,4,q,++,--,0.417732954025,41.2,1287.2,77,17,124.0,-4.3,-6.7
77,1.0,True,4,q,++,--,0.401149988174,37.2,1283.2,78,18,124.0,-4.0,-6.5
78,1.0,True,4,q,++,--,0.352111816406,29.5,1275.5,79,19,124.0,-7.7,-5.7
79,1.0,True,4,q,++,--,0.267731189728,24.8,1270.8,80,20,124.0,-4.7,-7.0
80,1.0,False,5,p,+,+,0.417783021927,21.2,1292.0,81,1,19.8,1.4,1.0
81,1.0,False,5,p,+,+,0.301359176636,22.2,1293.0,82,2,19.8,1.0,0.9
82,1.0,False,5,p,+,+,0.284170150757,23.6,1294.4,83,3,19.8,1.4,1.0
83,1.0,False,5,p,+,+,0.284300088882,24.8,1295.6,84,4,19.8,1.2,0.9
84,1.0,False,5,p,+,+,0.267581939697,25.5,1296.3,85,5,19.8,0.7,0.6
85,1.0,False,5,p,+,+,0.267580032349,26.8,1297.6,86,6,19.8,1.3,0.9
86,1.0,False,5,p,+,+,0.267575979233,27.8,1298.6,87,7,19.8,1.0,0.8
87,1.0,False,5,p,+,+,0.317728042603,29.0,1299.8,88,8,19.8,1.2,0.7
88,1.0,False,5,p,+,+,0.317749977112,30.0,1300.8,89,9,19.8,1.0,0.6
89,1.0,False,5,p,+,+,0.284376144409,30.9,1301.7,90,10,19.8,0.9,1.1
90,1.0,False,5,p,+,+,0.284492969513,32.0,1302.8,91,11,19.8,1.1,0.7
91,1.0,False,5,p,+,+,0.251028060913,33.2,1304.0,92,12,19.8,1.2,0.8
92,1.0,False,5,p,+,+,0.26774096489,34.4,1305.2,93,13,19.8,1.2,1.0
93,0.0,False,5,q,+,+,0.217849969864,35.5,1306.3,94,14,19.8,1.1,1.1
94,0.0,False,5,q,+,+,0.251002073288,36.2,1307.0,95,15,19.8,1.0,0.7
95,1.0,False,5,p,+,+,0.30092382431,37.4,1308.2,96,16,19.8,1.2,1.0
96,1.0,False,5,p,+,+,0.217666864395,38.4,1309.2,97,17,19.8,1.0,0.6
97,1.0,False,5,p,+,+,0.351109027863,39.4,1310.2,98,18,19.8,1.0,0.8
98,1.0,False,5,p,+,+,0.284217119217,40.5,1311.3,99,19,19.8,1.1,1.2
99,1.0,False,5,p,+,+,0.267695903778,41.5,1312.3,100,20,19.8,1.0,0.6
100,0.0,False,6,q,-,+,0.484501123428,-20.2,1292.1,101,1,-20.9,1.0,0.7
101,1.0,False,6,p,-,+,0.517990112305,-19.0,1293.3,102,2,-20.9,1.2,0.7
102,1.0,False,6,p,-,+,0.33454990387,-18.3,1294.0,103,3,-20.9,0.7,0.8
103,1.0,False,6,p,-,+,0.200879812241,-17.6,1294.7,104,4,-20.9,0.7,0.7
104,0.0,False,6,q,-,+,0.251073122025,-16.6,1295.7,105,5,-20.9,0.9,1.0
105,0.0,False,6,q,-,+,0.284210920334,-15.9,1296.4,106,6,-20.9,0.8,0.7
106,1.0,False,6,p,-,+,0.334386110306,-14.9,1297.4,107,7,-20.9,1.0,1.0
107,1.0,False,6,p,-,+,0.251231193542,-13.6,1298.7,108,8,-20.9,1.3,0.6
108,1.0,False,6,p,-,+,0.21759390831,-12.6,1299.7,109,9,-20.9,1.0,0.9
109,1.0,False,6,p,-,+,0.267767906189,-11.6,1300.7,110,10,-20.9,1.0,1.1
110,1.0,False,6,p,-,+,0.167448043823,-10.3,1302.0,111,11,-20.9,1.3,0.9
111,1.0,False,6,p,-,+,0.267600059509,-9.1,1303.2,112,12,-20.9,1.2,0.7
112,1.0,False,6,p,-,+,0.284409999847,-8.4,1303.9,113,13,-20.9,0.7,0.6
113,1.0,False,6,p,-,+,0.267651081085,-7.0,1305.3,114,14,-20.9,1.4,0.7
114,1.0,False,6,p,-,+,0.267531871796,-5.9,1306.4,115,15,-20.9,1.1,1.0
115,1.0,False,6,p,-,+,0.301021099091,-4.9,1307.4,116,16,-20.9,1.0,1.0
116,1.0,False,6,p,-,+,0.317672014236,-3.6,1308.7,117,17,-20.9,1.3,0.9
117,1.0,False,6,p,-,+,0.300943136215,-2.3,1310.0,118,18,-20.9,1.3,0.5
118,1.0,False,6,p,-,+,0.250933170319,-1.4,1310.9,119,19,-20.9,0.9,0.7
119,1.0,False,6,p,-,+,0.28435587883,-0.4,1311.9,120,20,-20.9,1.0,0.6
120,1.0,True,7,q,-,++,0.234179973602,-12.0,1299.9,121,1,-19.8,7.8,6.1
121,1.0,True,7,q,-,++,0.284273147583,-6.3,1305.6,122,2,-19.8,5.7,4.6
122,1.0,True,7,q,-,++,0.21763086319,0.3,1312.2,123,3,-19.8,6.6,5.9
123,1.0,True,7,q,-,++,0.267583847046,7.8,1319.7,124,4,-19.8,7.5,3.7
124,1.0,True,7,q,-,++,0.284329891205,14.7,1326.6,125,5,-19.8,6.9,5.4
125,1.0,True,7,q,-,++,0.234189033508,21.6,1333.5,126,6,-19.8,6.9,5.9
126,1.0,True,7,q,-,++,0.317723989487,28.3,1340.2,127,7,-19.8,6.7,4.6
127,1.0,True,7,q,-,++,0.284247875214,34.0,1345.9,128,8,-19.8,5.7,3.7
128,1.0,True,7,q,-,++,0.184175014496,41.9,1353.8,129,9,-19.8,7.9,4.6
129,1.0,True,7,q,-,++,0.234362125397,51.8,1363.7,130,10,-19.8,9.9,6.9
130,1.0,True,7,q,-,++,0.235269069672,56.4,1368.3,131,11,-19.8,4.6,4.6
131,1.0,True,7,q,-,++,0.200892925262,63.3,1375.2,132,12,-19.8,6.9,4.9
132,1.0,True,7,q,-,++,0.234325885773,71.0,1382.9,133,13,-19.8,7.7,4.0
133,1.0,True,7,q,-,++,0.0841209888458,75.9,1387.8,134,14,-19.8,4.9,3.8
134,1.0,True,7,q,-,++,0.16747713089,82.4,1394.3,135,15,-19.8,6.5,6.8
135,1.0,True,7,q,-,++,0.217527151108,91.3,1403.2,136,16,-19.8,8.9,5.5
136,1.0,True,7,q,-,++,0.0341360569,96.5,1408.4,137,17,-19.8,5.2,3.1
137,1.0,True,7,q,-,++,0.217662096024,102.6,1414.5,138,18,-19.8,6.1,4.3
138,1.0,True,7,q,-,++,0.217545986176,110.3,1422.2,139,19,-19.8,7.7,5.0
139,1.0,True,7,q,-,++,0.25093793869,118.1,1430.0,140,20,-19.8,7.8,4.6
140,0.0,True,8,p,--,-,0.367828845978,-119.0,1311.0,141,1,-118.0,-0.9,-1.0
141,1.0,True,8,q,--,-,0.26762509346,-119.8,1310.2,142,2,-118.0,-0.8,-1.1
142,1.0,True,8,q,--,-,0.284314870834,-120.5,1309.5,143,3,-118.0,-0.7,-1.2
143,1.0,True,8,q,--,-,0.217530012131,-121.3,1308.7,144,4,-118.0,-0.8,-1.1
144,1.0,True,8,q,--,-,0.117331027985,-122.3,1307.7,145,5,-118.0,-1.0,-1.2
145,1.0,True,8,q,--,-,0.117522954941,-123.4,1306.6,146,6,-118.0,-1.1,-1.1
146,1.0,True,8,q,--,-,0.184134960175,-124.0,1306.0,147,7,-118.0,-0.6,-1.1
147,1.0,True,8,q,--,-,0.150852918625,-124.7,1305.3,148,8,-118.0,-0.7,-1.2
148,1.0,True,8,q,--,-,0.184401988983,-125.7,1304.3,149,9,-118.0,-1.0,-1.0
149,1.0,True,8,q,--,-,0.167782783508,-126.3,1303.7,150,10,-118.0,-0.6,-1.1
150,1.0,True,8,q,--,-,0.184139966965,-127.0,1303.0,151,11,-118.0,-0.7,-0.9
151,1.0,True,8,q,--,-,0.217623949051,-127.7,1302.3,152,12,-118.0,-0.7,-1.4
152,1.0,True,8,q,--,-,0.250957965851,-128.5,1301.5,153,13,-118.0,-0.8,-1.2
153,1.0,True,8,q,--,-,0.217687129974,-129.1,1300.9,154,14,-118.0,-0.6,-1.1
154,1.0,True,8,q,--,-,0.218568086624,-130.2,1299.8,155,15,-118.0,-1.1,-0.9
155,1.0,True,8,q,--,-,0.184374809265,-131.0,1299.0,156,16,-118.0,-0.8,-1.3
156,1.0,True,8,q,--,-,0.118408918381,-131.5,1298.5,157,17,-118.0,-0.5,-1.3
157,1.0,True,8,q,--,-,0.317603111267,-132.4,1297.6,158,18,-118.0,-0.9,-0.8
158,1.0,True,8,q,--,-,0.185162067413,-133.3,1296.7,159,19,-118.0,-0.9,-1.1
159,1.0,True,8,q,--,-,0.267845153809,-134.5,1295.5,160,20,-118.0,-1.2,-1.1
160,0.0,True,9,p,+,--,0.234223842621,13.6,1309.1,161,1,20.1,-5.1,-6.5
161,1.0,True,9,q,+,--,0.234200000763,9.6,1305.1,162,2,20.1,-4.0,-7.2
162,1.0,True,9,q,+,--,0.184334039688,6.4,1301.9,163,3,20.1,-3.2,-6.7
163,1.0,True,9,q,+,--,0.250957965851,0.4,1295.9,164,4,20.1,-6.0,-8.3
164,1.0,True,9,q,+,--,0.234450817108,-4.1,1291.4,165,5,20.1,-4.5,-8.1
165,1.0,True,9,q,+,--,0.167551994324,-10.6,1284.9,166,6,20.1,-6.5,-7.2
166,1.0,True,9,q,+,--,0.250918149948,-15.2,1280.3,167,7,20.1,-4.6,-7.0
167,1.0,True,9,q,+,--,0.217601060867,-20.3,1275.2,168,8,20.1,-5.1,-7.0
168,1.0,True,9,q,+,--,0.584393978119,-25.2,1270.3,169,9,20.1,-4.9,-7.3
169,1.0,True,9,q,+,--,0.451088905334,-29.5,1266.0,170,10,20.1,-4.3,-8.2
170,1.0,True,9,q,+,--,0.284494876862,-35.5,1260.0,171,11,20.1,-6.0,-5.2
171,1.0,True,9,q,+,--,0.251003980637,-41.7,1253.8,172,12,20.1,-6.2,-7.0
172,1.0,True,9,q,+,--,0.000642061233521,-46.5,1249.0,173,13,20.1,-4.8,-6.8
173,1.0,True,9,q,+,--,0.217698812485,-50.3,1245.2,174,14,20.1,-3.8,-5.6
174,0.0,True,9,p,+,--,0.217668056488,-55.8,1239.7,175,15,20.1,-5.6,-5.5
175,1.0,True,9,q,+,--,0.251106023788,-59.3,1236.2,176,16,20.1,-3.5,-6.0
176,1.0,True,9,q,+,--,0.234178066254,-64.6,1230.9,177,17,20.1,-5.3,-8.5
177,1.0,True,9,q,+,--,0.234330892563,-71.0,1224.5,178,18,20.1,-6.4,-6.8
178,0.0,True,9,p,+,--,0.201009988785,-75.8,1219.7,179,19,20.1,-5.4,-4.8
179,1.0,True,9,q,+,--,0.234553813934,-82.2,1213.3,180,20,20.1,-6.4,-5.3
180,0.0,False,10,q,-,++,0.401194095612,-12.5,1200.8,181,1,-19.5,6.1,7.0
181,0.0,False,10,q,-,++,0.217487096786,-10.0,1203.3,182,2,-19.5,8.1,2.5
182,0.0,False,10,q,-,++,0.167720079422,-3.2,1210.1,183,3,-19.5,5.6,6.8
183,1.0,False,10,p,-,++,0.217658042908,4.6,1217.9,184,4,-19.5,7.8,4.7
184,0.0,False,10,q,-,++,0.217648029327,9.3,1222.6,185,5,-19.5,7.3,4.7
185,1.0,False,10,p,-,++,0.15078496933,16.1,1229.4,186,6,-19.5,6.8,5.9
186,1.0,False,10,p,-,++,0.234423875809,21.9,1235.2,187,7,-19.5,5.8,4.4
187,1.0,False,10,p,-,++,0.284347057343,30.5,1243.8,188,8,-19.5,8.6,4.9
188,1.0,False,10,p,-,++,0.284325122833,37.7,1251.0,189,9,-19.5,7.2,3.8
189,1.0,False,10,p,-,++,0.217441082001,45.0,1258.3,190,10,-19.5,7.3,6.8
190,1.0,False,10,p,-,++,0.267549991608,52.8,1266.1,191,11,-19.5,7.8,5.4
191,1.0,False,10,p,-,++,0.218591928482,59.1,1272.4,192,12,-19.5,6.3,4.0
192,1.0,False,10,p,-,++,0.250910043716,64.2,1277.5,193,13,-19.5,5.1,4.9
193,1.0,False,10,p,-,++,0.235170125961,74.0,1287.3,194,14,-19.5,9.8,5.2
194,1.0,False,10,p,-,++,0.251225948334,81.2,1294.5,195,15,-19.5,7.2,2.6
195,1.0,False,10,p,-,++,0.284320116043,87.9,1301.2,196,16,-19.5,6.7,5.1
196,1.0,False,10,p,-,++,0.234240055084,95.8,1309.1,197,17,-19.5,7.9,6.0
197,1.0,False,10,p,-,++,0.3342628479,101.6,1314.9,198,18,-19.5,5.8,3.9
198,1.0,False,10,p,-,++,0.25084400177,107.7,1321.0,199,19,-19.5,6.1,4.1
199,1.0,False,10,p,-,++,0.234267950058,116.0,1329.3,200,20,-19.5,8.3,5.2
200,1.0,False,11,p,++,-,0.434321880341,119.8,1449.1,201,1,121.0,-1.2,-1.1
201,0.0,False,11,q,++,-,0.267686128616,118.7,1448.0,202,2,121.0,-0.7,-1.1
202,1.0,False,11,p,++,-,0.217437028885,117.8,1447.1,203,3,121.0,-0.9,-0.9
203,1.0,False,11,p,++,-,0.217436075211,116.9,1446.2,204,4,121.0,-0.9,-1.4
204,1.0,False,11,p,++,-,0.200970888138,116.3,1445.6,205,5,121.0,-0.6,-1.2
205,1.0,False,11,p,++,-,0.234205007553,115.4,1444.7,206,6,121.0,-0.9,-1.2
206,1.0,False,11,p,++,-,0.28418803215,114.5,1443.8,207,7,121.0,-0.9,-0.9
207,1.0,False,11,p,++,-,0.234195947647,113.3,1442.6,208,8,121.0,-1.2,-1.0
208,1.0,False,11,p,++,-,0.26754117012,112.2,1441.5,209,9,121.0,-1.1,-0.9
209,1.0,False,11,p,++,-,0.217743873596,111.4,1440.7,210,10,121.0,-0.8,-1.4
210,1.0,False,11,p,++,-,0.234746932983,110.1,1439.4,211,11,121.0,-1.3,-1.2
211,1.0,False,11,p,++,-,0.234186172485,109.1,1438.4,212,12,121.0,-1.0,-1.2
212,1.0,False,11,p,++,-,0.267673969269,108.0,1437.3,213,13,121.0,-1.1,-1.2
213,1.0,False,11,p,++,-,0.234184980392,106.8,1436.1,214,14,121.0,-1.2,-1.2
214,1.0,False,11,p,++,-,0.184166193008,105.8,1435.1,215,15,121.0,-1.0,-0.9
215,1.0,False,11,p,++,-,0.184100866318,105.1,1434.4,216,16,121.0,-0.7,-1.4
216,1.0,False,11,p,++,-,0.217637062073,104.2,1433.5,217,17,121.0,-0.9,-1.6
217,0.0,False,11,q,++,-,0.251180887222,103.2,1432.5,218,18,121.0,-0.9,-1.0
218,0.0,False,11,q,++,-,0.25085401535,101.6,1430.9,219,19,121.0,-1.0,-1.6
219,1.0,False,11,p,++,-,0.234302043915,100.4,1429.7,220,20,121.0,-1.2,-1.0
220,0.0,True,12,p,--,+,0.234255075455,-117.0,1312.7,221,1,-118.0,0.8,1.0
221,0.0,True,12,p,--,+,0.43470287323,-116.0,1313.7,222,2,-118.0,1.1,1.0
222,0.0,True,12,p,--,+,0.234202861786,-114.9,1314.8,223,3,-118.0,1.0,1.1
223,0.0,True,12,p,--,+,0.251001119614,-114.1,1315.6,224,4,-118.0,1.0,0.8
224,0.0,True,12,p,--,+,0.267554044724,-113.5,1316.2,225,5,-118.0,1.1,0.6
225,1.0,True,12,q,--,+,0.534416913986,-112.2,1317.5,226,6,-118.0,1.3,1.2
226,1.0,True,12,q,--,+,0.250936031342,-110.8,1318.9,227,7,-118.0,1.4,1.0
227,1.0,True,12,q,--,+,0.267663002014,-109.6,1320.1,228,8,-118.0,1.2,0.8
228,1.0,True,12,q,--,+,0.284559965134,-108.4,1321.3,229,9,-118.0,1.2,1.1
229,1.0,True,12,q,--,+,0.26891708374,-107.2,1322.5,230,10,-118.0,1.2,0.8
230,1.0,True,12,q,--,+,0.300942897797,-106.2,1323.5,231,11,-118.0,1.0,1.0
231,1.0,True,12,q,--,+,0.301035165787,-105.0,1324.7,232,12,-118.0,1.2,0.5
232,1.0,True,12,q,--,+,0.250858068466,-104.0,1325.7,233,13,-118.0,1.0,0.8
233,1.0,True,12,q,--,+,0.334350824356,-102.8,1326.9,234,14,-118.0,1.2,0.8
234,1.0,True,12,q,--,+,0.301018953323,-102.0,1327.7,235,15,-118.0,0.8,1.0
235,1.0,True,12,q,--,+,0.267508983612,-101.1,1328.6,236,16,-118.0,0.9,1.0
236,1.0,True,12,q,--,+,0.267580032349,-100.2,1329.5,237,17,-118.0,0.9,0.8
237,1.0,True,12,q,--,+,0.267650842667,-99.1,1330.6,238,18,-118.0,1.1,1.2
238,0.0,True,12,p,--,+,0.250857830048,-98.6,1331.1,239,19,-118.0,1.4,0.5
239,1.0,True,12,q,--,+,0.217522144318,-97.6,1332.1,240,20,-118.0,1.0,1.2
240,1.0,False,13,p,++,++,0.267756938934,139.4,1471.5,241,1,133.0,6.4,6.0
241,1.0,False,13,p,++,++,0.184355974197,149.3,1481.4,242,2,133.0,9.9,3.5
242,1.0,False,13,p,++,++,0.267641782761,155.5,1487.6,243,3,133.0,6.2,3.8
243,1.0,False,13,p,++,++,0.28427696228,161.9,1494.0,244,4,133.0,6.4,6.7
244,1.0,False,13,p,++,++,0.217451095581,169.3,1501.4,245,5,133.0,7.4,5.7
245,1.0,False,13,p,++,++,0.267713069916,175.9,1508.0,246,6,133.0,6.6,4.3
246,1.0,False,13,p,++,++,0.217763900757,183.6,1515.7,247,7,133.0,7.7,3.4
247,1.0,False,13,p,++,++,0.267629861832,190.6,1522.7,248,8,133.0,7.0,6.1
248,1.0,False,13,p,++,++,0.28551197052,199.1,1531.2,249,9,133.0,8.5,5.7
249,1.0,False,13,p,++,++,0.334496974945,205.8,1537.9,250,10,133.0,6.7,5.1
250,1.0,False,13,p,++,++,0.234220981598,211.6,1543.7,251,11,133.0,5.8,5.4
251,1.0,False,13,p,++,++,0.251049995422,218.1,1550.2,252,12,133.0,6.5,5.2
252,1.0,False,13,p,++,++,0.434441804886,224.5,1556.6,253,13,133.0,6.4,4.4
253,1.0,False,13,p,++,++,0.250967025757,232.3,1564.4,254,14,133.0,7.8,5.4
254,1.0,False,13,p,++,++,0.134221076965,238.5,1570.6,255,15,133.0,6.2,4.4
255,1.0,False,13,p,++,++,0.300922870636,246.9,1579.0,256,16,133.0,8.4,3.7
256,1.0,False,13,p,++,++,0.234130144119,252.4,1584.5,257,17,133.0,5.5,4.6
257,1.0,False,13,p,++,++,0.250955820084,258.8,1590.9,258,18,133.0,6.4,6.7
258,1.0,False,13,p,++,++,0.217534065247,265.3,1597.4,259,19,133.0,6.5,4.1
259,1.0,False,13,p,++,++,0.200883865356,273.2,1605.3,260,20,133.0,7.9,6.2
260,0.0,False,14,q,--,--,0.267637968063,-128.6,1476.7,261,1,-121.0,-3.7,-7.6
261,1.0,False,14,p,--,--,0.217511177063,-133.5,1471.8,262,2,-121.0,-4.9,-5.5
262,1.0,False,14,p,--,--,0.25106716156,-137.9,1467.4,263,3,-121.0,-4.4,-6.8
263,1.0,False,14,p,--,--,0.16766500473,-142.1,1463.2,264,4,-121.0,-4.2,-8.3
264,1.0,False,14,p,--,--,0.267798900604,-147.3,1458.0,265,5,-121.0,-5.2,-7.3
265,1.0,False,14,p,--,--,0.301011800766,-151.3,1454.0,266,6,-121.0,-4.0,-7.3
266,1.0,False,14,p,--,--,0.150939941406,-156.0,1449.3,267,7,-121.0,-4.7,-7.1
267,1.0,False,14,p,--,--,0.184504985809,-156.9,1448.4,268,8,-121.0,-0.9,-5.6
268,1.0,False,14,p,--,--,0.0841407775879,-164.4,1440.9,269,9,-121.0,-7.5,-5.5
269,1.0,False,14,p,--,--,0.217858791351,-168.1,1437.2,270,10,-121.0,-3.7,-6.5
270,1.0,False,14,p,--,--,0.184226036072,-172.0,1433.3,271,11,-121.0,-3.9,-7.9
271,1.0,False,14,p,--,--,0.200946092606,-178.0,1427.3,272,12,-121.0,-6.0,-5.2
272,1.0,False,14,p,--,--,0.000643014907837,-185.0,1420.3,273,13,-121.0,-7.0,-7.6
273,1.0,False,14,p,--,--,0.234306812286,-190.2,1415.1,274,14,-121.0,-5.2,-7.4
274,0.0,False,14,q,--,--,0.267663002014,-196.7,1408.6,275,15,-121.0,-5.0,-6.5
275,1.0,False,14,p,--,--,0.200896978378,-201.1,1404.2,276,16,-121.0,-4.4,-8.1
276,1.0,False,14,p,--,--,0.200913190842,-206.3,1399.0,277,17,-121.0,-5.2,-6.2
277,1.0,False,14,p,--,--,0.200913190842,-210.8,1394.5,278,18,-121.0,-4.5,-7.4
278,1.0,False,14,p,--,--,0.10075712204,-216.1,1389.2,279,19,-121.0,-5.3,-7.6
279,1.0,False,14,p,--,--,0.217508077621,-220.6,1384.7,280,20,-121.0,-4.5,-7.5
280,1.0,False,15,p,--,--,0.518023014069,-123.7,1261.0,281,1,-116.0,-7.7,-9.4
281,1.0,False,15,p,--,--,0.251009941101,-128.4,1256.3,282,2,-116.0,-4.7,-6.5
282,1.0,False,15,p,--,--,0.250907182693,-133.0,1251.7,283,3,-116.0,-4.6,-7.0
283,1.0,False,15,p,--,--,0.218635082245,-138.7,1246.0,284,4,-116.0,-5.7,-7.7
284,1.0,False,15,p,--,--,0.21749997139,-141.8,1242.9,285,5,-116.0,-3.1,-7.4
285,1.0,False,15,p,--,--,0.267483949661,-145.6,1239.1,286,6,-116.0,-3.8,-6.8
286,1.0,False,15,p,--,--,0.217527151108,-151.5,1233.2,287,7,-116.0,-5.9,-5.5
287,1.0,False,15,p,--,--,0.0506639480591,-156.2,1228.5,288,8,-116.0,-4.7,-8.8
288,1.0,False,15,p,--,--,0.250821828842,-162.1,1222.6,289,9,-116.0,-5.9,-6.7
289,1.0,False,15,p,--,--,0.25118303299,-166.1,1218.6,290,10,-116.0,-4.0,-6.4
290,1.0,False,15,p,--,--,0.200793981552,-172.0,1212.7,291,11,-116.0,-5.9,-7.4
291,1.0,False,15,p,--,--,0.450963973999,-179.4,1205.3,292,12,-116.0,-7.4,-6.5
292,1.0,False,15,p,--,--,0.200838088989,-182.7,1202.0,293,13,-116.0,-3.3,-6.7
293,1.0,False,15,p,--,--,0.250936031342,-189.5,1195.2,294,14,-116.0,-6.8,-9.3
294,1.0,False,15,p,--,--,0.284445047379,-193.8,1190.9,295,15,-116.0,-4.3,-6.2
295,1.0,False,15,p,--,--,0.250945091248,-199.7,1185.0,296,16,-116.0,-5.9,-7.5
296,1.0,False,15,p,--,--,0.250941991806,-203.9,1180.8,297,17,-116.0,-4.2,-7.6
297,1.0,False,15,p,--,--,0.284379959106,-209.8,1174.9,298,18,-116.0,-5.9,-5.5
298,1.0,False,15,p,--,--,0.250957012177,-214.8,1169.9,299,19,-116.0,-5.0,-5.7
299,1.0,False,15,p,--,--,0.217287778854,-219.3,1165.4,300,20,-116.0,-4.5,-6.7
300,1.0,False,16,p,+,+,0.267635822296,21.3,1186.7,301,1,20.0,1.3,0.8
301,1.0,False,16,p,+,+,0.217784166336,22.3,1187.7,302,2,20.0,1.0,0.9
302,1.0,False,16,p,+,+,0.567608833313,23.6,1189.0,303,3,20.0,1.3,0.9
303,1.0,False,16,p,+,+,0.252034902573,24.8,1190.2,304,4,20.0,1.2,0.9
304,1.0,False,16,p,+,+,0.234200000763,26.3,1191.7,305,5,20.0,1.5,0.9
305,1.0,False,16,p,+,+,0.417750120163,27.3,1192.7,306,6,20.0,1.0,1.2
306,1.0,False,16,p,+,+,0.200766086578,28.5,1193.9,307,7,20.0,1.2,0.9
307,1.0,False,16,p,+,+,0.30109000206,29.3,1194.7,308,8,20.0,0.8,0.9
308,1.0,False,16,p,+,+,0.334255933762,30.4,1195.8,309,9,20.0,1.1,0.7
309,1.0,False,16,p,+,+,0.234554052353,31.5,1196.9,310,10,20.0,1.1,1.4
310,1.0,False,16,p,+,+,0.200856924057,32.4,1197.8,311,11,20.0,0.9,0.8
311,1.0,False,16,p,+,+,0.217590093613,33.2,1198.6,312,12,20.0,0.8,1.2
312,1.0,False,16,p,+,+,0.0673980712891,34.0,1199.4,313,13,20.0,0.8,0.7
313,0.0,False,16,q,+,+,0.201017141342,34.8,1200.2,314,14,20.0,1.1,0.8
314,0.0,False,16,q,+,+,0.334388971329,35.7,1201.1,315,15,20.0,0.6,0.9
315,1.0,False,16,p,+,+,0.234313964844,36.8,1202.2,316,16,20.0,1.1,1.1
316,1.0,False,16,p,+,+,0.21747803688,38.4,1203.8,317,17,20.0,1.6,1.1
317,1.0,False,16,p,+,+,0.217613935471,39.6,1205.0,318,18,20.0,1.2,0.7
318,0.0,False,16,q,+,+,0.234195947647,40.9,1206.3,319,19,20.0,1.2,1.3
319,1.0,False,16,p,+,+,0.251259088516,0.0,1026.0,320,20,20.0,0.9,0.8
