,accuracy,better_option_left,block_number,choice_key,reference_IV,reward_IV,rt,running_score_block,running_score_experiment,trial,trial_block,reference_block,reward_trial_better_option,reward_trial_worse_option
0,0.0,False,1,q,--,+,1.56895494461,-123.1,902.9,1,1,-124.0,1.0,0.9
1,1.0,False,1,p,--,+,0.317684173584,-121.9,904.1,2,2,-124.0,1.2,1.0
2,0.0,False,1,q,--,+,0.251924991608,-121.2,904.8,3,3,-124.0,1.3,0.7
3,0.0,False,1,q,--,+,0.284305095673,-120.6,905.4,4,4,-124.0,1.3,0.6
4,1.0,False,1,p,--,+,0.0173101425171,-119.5,906.5,5,5,-124.0,1.1,0.9
5,1.0,False,1,p,--,+,0.184314966202,-118.6,907.4,6,6,-124.0,0.9,0.6
6,1.0,False,1,p,--,+,0.184195041656,-117.2,908.8,7,7,-124.0,1.4,0.7
7,1.0,False,1,p,--,+,0.46764087677,-116.0,910.0,8,8,-124.0,1.2,1.1
8,0.0,False,1,q,--,+,0.167792081833,-115.4,910.6,9,9,-124.0,1.4,0.6
9,1.0,False,1,p,--,+,0.217522859573,-114.3,911.7,10,10,-124.0,1.1,1.2
10,1.0,False,1,p,--,+,0.0508151054382,-113.2,912.8,11,11,-124.0,1.1,0.7
11,1.0,False,1,p,--,+,0.184135913849,-112.3,913.7,12,12,-124.0,0.9,0.8
12,1.0,False,1,p,--,+,0.200922012329,-111.2,914.8,13,13,-124.0,1.1,0.9
13,1.0,False,1,p,--,+,0.250953912735,-109.9,916.1,14,14,-124.0,1.3,0.7
14,1.0,False,1,p,--,+,0.267783164978,-108.9,917.1,15,15,-124.0,1.0,1.0
15,0.0,False,1,q,--,+,0.0340871810913,-107.8,918.2,16,16,-124.0,1.4,1.1
16,1.0,False,1,p,--,+,0.200807094574,-106.9,919.1,17,17,-124.0,0.9,1.1
17,0.0,False,1,q,--,+,0.384464979172,-106.0,920.0,18,18,-124.0,1.0,0.9
18,1.0,False,1,p,--,+,0.234308004379,-104.9,921.1,19,19,-124.0,1.1,0.7
19,1.0,False,1,p,--,+,0.217669010162,-103.8,922.2,20,20,-124.0,1.1,1.0
20,0.0,True,2,p,++,+,0.451017141342,118.5,1040.7,21,1,118.0,0.8,0.5
21,1.0,True,2,q,++,+,0.200907945633,119.3,1041.5,22,2,118.0,0.8,1.0
22,0.0,True,2,p,++,+,0.134203910828,120.2,1042.4,23,3,118.0,1.0,0.9
23,0.0,True,2,p,++,+,0.66819691658,121.4,1043.6,24,4,118.0,1.0,1.2
24,1.0,True,2,q,++,+,0.234439134598,122.3,1044.5,25,5,118.0,0.9,1.1
25,0.0,True,2,p,++,+,0.250977039337,123.5,1045.7,26,6,118.0,0.8,1.2
26,0.0,True,2,p,++,+,0.217509031296,124.5,1046.7,27,7,118.0,1.4,1.0
27,0.0,True,2,p,++,+,0.134052038193,125.6,1047.8,28,8,118.0,1.3,1.1
28,0.0,True,2,p,++,+,0.134132146835,126.2,1048.4,29,9,118.0,1.3,0.6
29,0.0,True,2,p,++,+,0.0673198699951,127.4,1049.6,30,10,118.0,1.1,1.2
30,1.0,True,2,q,++,+,0.0507159233093,128.1,1050.3,31,11,118.0,0.7,0.5
31,0.0,True,2,p,++,+,0.100670099258,128.9,1051.1,32,12,118.0,1.0,0.8
32,0.0,True,2,p,++,+,0.134176015854,129.8,1052.0,33,13,118.0,1.4,0.9
33,0.0,True,2,p,++,+,0.200835943222,130.6,1052.8,34,14,118.0,1.2,0.8
34,0.0,True,2,p,++,+,0.150797128677,131.2,1053.4,35,15,118.0,1.4,0.6
35,0.0,True,2,p,++,+,0.434240818024,131.7,1053.9,36,16,118.0,0.6,0.5
36,1.0,True,2,q,++,+,0.000677824020386,133.2,1055.4,37,17,118.0,1.5,0.8
37,1.0,True,2,q,++,+,0.284209012985,134.4,1056.6,38,18,118.0,1.2,0.9
38,1.0,True,2,q,++,+,0.185154914856,135.4,1057.6,39,19,118.0,1.0,1.0
39,1.0,True,2,q,++,+,0.300905942917,136.7,1058.9,40,20,118.0,1.3,1.1
40,1.0,False,3,p,+,++,0.36761713028,25.7,1084.6,41,1,18.8,6.9,4.6
41,0.0,False,3,q,+,++,0.234242916107,31.3,1090.2,42,2,18.8,5.6,5.6
42,1.0,False,3,p,+,++,0.251202821732,38.5,1097.4,43,3,18.8,7.2,5.1
43,1.0,False,3,p,+,++,0.301255941391,47.3,1106.2,44,4,18.8,8.8,5.3
44,1.0,False,3,p,+,++,0.384521007538,54.7,1113.6,45,5,18.8,7.4,5.0
45,1.0,False,3,p,+,++,0.401090145111,63.2,1122.1,46,6,18.8,8.5,5.3
46,1.0,False,3,p,+,++,0.200942993164,72.4,1131.3,47,7,18.8,9.2,4.5
47,1.0,False,3,p,+,++,0.0340139865875,79.4,1138.3,48,8,18.8,7.0,4.8
48,1.0,False,3,p,+,++,0.0173242092133,85.2,1144.1,49,9,18.8,5.8,5.2
49,1.0,False,3,p,+,++,0.23420381546,91.8,1150.7,50,10,18.8,6.6,5.6
50,1.0,False,3,p,+,++,0.234431028366,97.8,1156.7,51,11,18.8,6.0,2.8
51,1.0,False,3,p,+,++,0.250768184662,105.9,1164.8,52,12,18.8,8.1,5.9
52,1.0,False,3,p,+,++,0.267606973648,112.2,1171.1,53,13,18.8,6.3,4.4
53,1.0,False,3,p,+,++,0.18415594101,120.0,1178.9,54,14,18.8,7.8,5.6
54,1.0,False,3,p,+,++,0.184203863144,126.4,1185.3,55,15,18.8,6.4,4.8
55,1.0,False,3,p,+,++,0.0840408802032,134.0,1192.9,56,16,18.8,7.6,5.1
56,1.0,False,3,p,+,++,0.534769058228,139.6,1198.5,57,17,18.8,5.6,3.1
57,1.0,False,3,p,+,++,0.234441995621,144.5,1203.4,58,18,18.8,4.9,6.7
58,1.0,False,3,p,+,++,0.200932979584,150.3,1209.2,59,19,18.8,5.8,5.2
59,1.0,False,3,p,+,++,0.084007024765,157.0,1215.9,60,20,18.8,6.7,6.3
60,1.0,True,4,q,-,-,0.434490919113,-21.6,1194.3,61,1,-20.4,-1.2,-1.2
61,1.0,True,4,q,-,-,0.301120996475,-22.2,1193.7,62,2,-20.4,-0.6,-1.2
62,1.0,True,4,q,-,-,0.284316062927,-23.3,1192.6,63,3,-20.4,-1.1,-1.1
63,1.0,True,4,q,-,-,0.467903852463,-24.0,1191.9,64,4,-20.4,-0.7,-1.1
64,1.0,True,4,q,-,-,0.217553138733,-25.1,1190.8,65,5,-20.4,-1.1,-1.2
65,1.0,True,4,q,-,-,0.200979948044,-26.2,1189.7,66,6,-20.4,-1.1,-1.0
66,1.0,True,4,q,-,-,0.200990915298,-26.9,1189.0,67,7,-20.4,-0.7,-1.1
67,1.0,True,4,q,-,-,0.300945997238,-27.6,1188.3,68,8,-20.4,-0.7,-1.1
68,1.0,True,4,q,-,-,0.284343004227,-28.6,1187.3,69,9,-20.4,-1.0,-1.0
69,1.0,True,4,q,-,-,0.167453050613,-29.6,1186.3,70,10,-20.4,-1.0,-1.4
70,1.0,True,4,q,-,-,0.134170055389,-30.1,1185.8,71,11,-20.4,-0.5,-1.0
71,1.0,True,4,q,-,-,0.267511129379,-31.0,1184.9,72,12,-20.4,-0.9,-0.7
72,1.0,True,4,q,-,-,0.434255838394,-31.9,1184.0,73,13,-20.4,-0.9,-1.5
73,1.0,True,4,q,-,-,0.251089096069,-32.8,1183.1,74,14,-20.4,-0.9,-1.2
74,1.0,True,4,q,-,-,0.317661046982,-33.8,1182.1,75,15,-20.4,-1.0,-0.9
75,1.0,True,4,q,-,-,0.217778921127,-34.7,1181.2,76,16,-20.4,-0.9,-1.0
76,1.0,True,4,q,-,-,0.517788171768,-35.7,1180.2,77,17,-20.4,-1.0,-1.1
77,1.0,True,4,q,-,-,0.267575979233,-36.6,1179.3,78,18,-20.4,-0.9,-1.2
78,1.0,True,4,q,-,-,0.267359018326,-37.4,1178.5,79,19,-20.4,-0.8,-0.6
79,1.0,True,4,q,-,-,0.134318113327,-38.4,1177.5,80,20,-20.4,-1.0,-1.1
80,1.0,True,5,q,-,++,0.334246873856,-15.1,1162.4,81,1,-20.5,5.4,6.9
81,1.0,True,5,q,-,++,0.201179981232,-8.4,1169.1,82,2,-20.5,6.7,3.9
82,0.0,True,5,p,-,++,0.217283964157,-1.9,1175.6,83,3,-20.5,6.3,6.5
83,1.0,True,5,q,-,++,0.350821971893,3.4,1180.9,84,4,-20.5,5.3,4.2
84,0.0,True,5,p,-,++,0.43439912796,6.8,1184.3,85,5,-20.5,6.9,3.4
85,1.0,True,5,q,-,++,0.25091791153,12.1,1189.6,86,6,-20.5,5.3,3.5
86,0.0,True,5,p,-,++,0.134155988693,17.2,1194.7,87,7,-20.5,7.3,5.1
87,0.0,True,5,p,-,++,0.217773914337,21.2,1198.7,88,8,-20.5,5.0,4.0
88,1.0,True,5,q,-,++,0.350979089737,26.6,1204.1,89,9,-20.5,5.4,4.1
89,0.0,True,5,p,-,++,0.267512083054,31.9,1209.4,90,10,-20.5,8.7,5.3
90,0.0,True,5,p,-,++,0.250732898712,38.0,1215.5,91,11,-20.5,7.1,6.1
91,0.0,True,5,p,-,++,0.117444992065,43.3,1220.8,92,12,-20.5,6.8,5.3
92,1.0,True,5,q,-,++,0.134327888489,49.3,1226.8,93,13,-20.5,6.0,4.2
93,1.0,True,5,q,-,++,0.234160900116,57.4,1234.9,94,14,-20.5,8.1,5.8
94,0.0,True,5,p,-,++,0.167307853699,61.1,1238.6,95,15,-20.5,7.3,3.7
95,1.0,True,5,q,-,++,0.1840031147,68.2,1245.7,96,16,-20.5,7.1,5.0
96,1.0,True,5,q,-,++,0.134286165237,77.3,1254.8,97,17,-20.5,9.1,8.9
97,1.0,True,5,q,-,++,0.201066017151,83.7,1261.2,98,18,-20.5,6.4,5.9
98,1.0,True,5,q,-,++,0.200819015503,91.0,1268.5,99,19,-20.5,7.3,5.7
99,1.0,True,5,q,-,++,0.217609882355,100.7,1278.2,100,20,-20.5,9.7,6.7
100,0.0,False,6,q,-,--,1.20207500458,-26.6,1251.6,101,1,-20.2,-6.5,-6.4
101,0.0,False,6,q,-,--,0.250962018967,-33.5,1244.7,102,2,-20.2,-5.6,-6.9
102,1.0,False,6,p,-,--,0.300977945328,-38.7,1239.5,103,3,-20.2,-5.2,-3.7
103,0.0,False,6,q,-,--,0.217698097229,-48.9,1229.3,104,4,-20.2,-3.6,-10.2
104,1.0,False,6,p,-,--,0.350908041,-53.0,1225.2,105,5,-20.2,-4.1,-7.6
105,1.0,False,6,p,-,--,0.250996112823,-58.4,1219.8,106,6,-20.2,-5.4,-6.7
106,1.0,False,6,p,-,--,0.267742872238,-63.8,1214.4,107,7,-20.2,-5.4,-8.2
107,1.0,False,6,p,-,--,0.201928853989,-69.4,1208.8,108,8,-20.2,-5.6,-5.7
108,1.0,False,6,p,-,--,0.301074981689,-74.5,1203.7,109,9,-20.2,-5.1,-7.0
109,1.0,False,6,p,-,--,0.217794895172,-79.1,1199.1,110,10,-20.2,-4.6,-6.5
110,1.0,False,6,p,-,--,0.301105976105,-84.7,1193.5,111,11,-20.2,-5.6,-6.9
111,1.0,False,6,p,-,--,0.284269094467,-90.1,1188.1,112,12,-20.2,-5.4,-6.1
112,1.0,False,6,p,-,--,0.167757034302,-94.0,1184.2,113,13,-20.2,-3.9,-8.0
113,1.0,False,6,p,-,--,0.150756835938,-99.0,1179.2,114,14,-20.2,-5.0,-6.6
114,1.0,False,6,p,-,--,0.000683784484863,-103.6,1174.6,115,15,-20.2,-4.6,-7.9
115,1.0,False,6,p,-,--,0.234350919724,-108.3,1169.9,116,16,-20.2,-4.7,-7.9
116,1.0,False,6,p,-,--,0.217792987823,-114.6,1163.6,117,17,-20.2,-6.3,-7.1
117,1.0,False,6,p,-,--,0.401080846786,-119.9,1158.3,118,18,-20.2,-5.3,-7.7
118,1.0,False,6,p,-,--,0.334389925003,-128.0,1150.2,119,19,-20.2,-8.1,-6.0
119,1.0,False,6,p,-,--,0.201001882553,-134.7,1143.5,120,20,-20.2,-6.7,-7.4
120,0.0,False,7,q,--,++,0.401135921478,-110.7,1032.8,121,1,-114.0,6.6,3.3
121,1.0,False,7,p,--,++,0.417646884918,-103.8,1039.7,122,2,-114.0,6.9,3.9
122,1.0,False,7,p,--,++,0.250986099243,-96.3,1047.2,123,3,-114.0,7.5,5.8
123,1.0,False,7,p,--,++,0.28444314003,-91.7,1051.8,124,4,-114.0,4.6,6.2
124,0.0,False,7,q,--,++,0.23454284668,-85.3,1058.2,125,5,-114.0,7.2,6.4
125,1.0,False,7,p,--,++,0.200870037079,-79.2,1064.3,126,6,-114.0,6.1,4.9
126,1.0,False,7,p,--,++,0.267644166946,-72.4,1071.1,127,7,-114.0,6.8,5.9
127,1.0,False,7,p,--,++,0.367830038071,-65.0,1078.5,128,8,-114.0,7.4,5.9
128,1.0,False,7,p,--,++,0.534569978714,-59.4,1084.1,129,9,-114.0,5.6,6.0
129,0.0,False,7,q,--,++,0.267798900604,-55.0,1088.5,130,10,-114.0,6.3,4.4
130,1.0,False,7,p,--,++,0.0338921546936,-49.1,1094.4,131,11,-114.0,5.9,4.8
131,1.0,False,7,p,--,++,0.167424917221,-40.6,1102.9,132,12,-114.0,8.5,5.5
132,1.0,False,7,p,--,++,0.217571020126,-33.5,1110.0,133,13,-114.0,7.1,5.7
133,1.0,False,7,p,--,++,0.434688091278,-25.5,1118.0,134,14,-114.0,8.0,4.0
134,1.0,False,7,p,--,++,0.21745300293,-16.9,1126.6,135,15,-114.0,8.6,6.4
135,1.0,False,7,p,--,++,0.434503078461,-9.8,1133.7,136,16,-114.0,7.1,5.3
136,1.0,False,7,p,--,++,0.367733001709,-5.6,1137.9,137,17,-114.0,4.2,5.2
137,1.0,False,7,p,--,++,0.100721120834,1.6,1145.1,138,18,-114.0,7.2,5.0
138,1.0,False,7,p,--,++,0.217540025711,8.3,1151.8,139,19,-114.0,6.7,3.2
139,1.0,False,7,p,--,++,0.251950979233,16.5,1160.0,140,20,-114.0,8.2,4.2
140,1.0,True,8,q,--,--,1.21887993813,-128.8,1031.2,141,1,-123.0,-5.8,-7.7
141,1.0,True,8,q,--,--,0.684668064117,-134.5,1025.5,142,2,-123.0,-5.7,-7.8
142,1.0,True,8,q,--,--,0.33533000946,-140.9,1019.1,143,3,-123.0,-6.4,-7.8
143,1.0,True,8,q,--,--,0.350821018219,-145.4,1014.6,144,4,-123.0,-4.5,-8.5
144,1.0,True,8,q,--,--,0.2843708992,-149.0,1011.0,145,5,-123.0,-3.6,-6.2
145,1.0,True,8,q,--,--,0.301266908646,-155.2,1004.8,146,6,-123.0,-6.2,-7.0
146,1.0,True,8,q,--,--,0.23422908783,-159.6,1000.4,147,7,-123.0,-4.4,-6.9
147,1.0,True,8,q,--,--,0.251017093658,-164.4,995.6,148,8,-123.0,-4.8,-5.6
148,0.0,True,8,p,--,--,0.217586040497,-171.5,988.5,149,9,-123.0,-5.1,-7.1
149,1.0,True,8,q,--,--,0.100671052933,-177.9,982.1,150,10,-123.0,-6.4,-7.9
150,1.0,True,8,q,--,--,0.300969839096,-180.7,979.3,151,11,-123.0,-2.8,-7.1
151,1.0,True,8,q,--,--,0.517966032028,-185.1,974.9,152,12,-123.0,-4.4,-8.1
152,1.0,True,8,q,--,--,0.23429107666,-190.4,969.6,153,13,-123.0,-5.3,-6.2
153,1.0,True,8,q,--,--,0.267649888992,-195.3,964.7,154,14,-123.0,-4.9,-4.5
154,1.0,True,8,q,--,--,0.100771188736,-199.8,960.2,155,15,-123.0,-4.5,-6.6
155,1.0,True,8,q,--,--,0.267548084259,-205.3,954.7,156,16,-123.0,-5.5,-6.7
156,1.0,True,8,q,--,--,0.300973892212,-210.4,949.6,157,17,-123.0,-5.1,-7.1
157,1.0,True,8,q,--,--,0.284419059753,-213.4,946.6,158,18,-123.0,-3.0,-4.8
158,1.0,True,8,q,--,--,0.367694854736,-214.9,945.1,159,19,-123.0,-1.5,-7.1
159,1.0,True,8,q,--,--,0.334472894669,-219.4,940.6,160,20,-123.0,-4.5,-4.8
160,0.0,True,9,p,++,++,0.501075983047,134.3,1074.9,161,1,130.0,7.2,4.3
161,0.0,True,9,p,++,++,0.0675110816956,141.1,1081.7,162,2,130.0,9.4,6.8
162,1.0,True,9,q,++,++,0.18407201767,144.7,1085.3,163,3,130.0,3.6,5.6
163,0.0,True,9,p,++,++,0.151099920273,149.2,1089.8,164,4,130.0,6.3,4.5
164,0.0,True,9,p,++,++,0.151137113571,152.1,1092.7,165,5,130.0,7.7,2.9
165,0.0,True,9,p,++,++,0.184088945389,154.8,1095.4,166,6,130.0,6.7,2.7
166,1.0,True,9,q,++,++,0.334270000458,162.2,1102.8,167,7,130.0,7.4,7.4
167,1.0,True,9,q,++,++,0.25106716156,167.7,1108.3,168,8,130.0,5.5,5.9
168,1.0,True,9,q,++,++,0.134114027023,176.6,1117.2,169,9,130.0,8.9,4.7
169,1.0,True,9,q,++,++,0.367479085922,181.1,1121.7,170,10,130.0,4.5,4.2
170,1.0,True,9,q,++,++,0.217509031296,187.6,1128.2,171,11,130.0,6.5,6.0
171,1.0,True,9,q,++,++,0.134000062943,193.0,1133.6,172,12,130.0,5.4,4.7
172,1.0,True,9,q,++,++,0.217617034912,199.0,1139.6,173,13,130.0,6.0,4.9
173,1.0,True,9,q,++,++,0.267322778702,205.8,1146.4,174,14,130.0,6.8,5.6
174,1.0,True,9,q,++,++,0.234416007996,213.0,1153.6,175,15,130.0,7.2,5.0
175,1.0,True,9,q,++,++,0.334360837936,220.5,1161.1,176,16,130.0,7.5,3.2
176,1.0,True,9,q,++,++,0.150885105133,227.3,1167.9,177,17,130.0,6.8,5.2
177,1.0,True,9,q,++,++,0.217568874359,234.2,1174.8,178,18,130.0,6.9,3.4
178,1.0,True,9,q,++,++,0.0341668128967,239.3,1179.9,179,19,130.0,5.1,4.7
179,1.0,True,9,q,++,++,0.250854969025,247.7,1188.3,180,20,130.0,8.4,5.5
180,1.0,False,10,p,+,-,1.06937003136,18.4,1206.7,181,1,19.2,-0.8,-1.0
181,1.0,False,10,p,+,-,0.334394931793,17.4,1205.7,182,2,19.2,-1.0,-0.9
182,1.0,False,10,p,+,-,0.150730133057,16.5,1204.8,183,3,19.2,-0.9,-1.1
183,1.0,False,10,p,+,-,0.401389122009,15.7,1204.0,184,4,19.2,-0.8,-1.0
184,1.0,False,10,p,+,-,0.28417301178,14.6,1202.9,185,5,19.2,-1.1,-1.3
185,1.0,False,10,p,+,-,0.467857837677,13.6,1201.9,186,6,19.2,-1.0,-1.0
186,1.0,False,10,p,+,-,0.268615961075,12.8,1201.1,187,7,19.2,-0.8,-1.1
187,1.0,False,10,p,+,-,0.284297943115,12.0,1200.3,188,8,19.2,-0.8,-1.2
188,1.0,False,10,p,+,-,0.267605066299,11.1,1199.4,189,9,19.2,-0.9,-1.1
189,1.0,False,10,p,+,-,0.351042032242,10.3,1198.6,190,10,19.2,-0.8,-1.7
190,0.0,False,10,q,+,-,0.467852115631,9.2,1197.5,191,11,19.2,-0.8,-1.1
191,1.0,False,10,p,+,-,0.284118890762,8.1,1196.4,192,12,19.2,-1.1,-0.9
192,1.0,False,10,p,+,-,0.38440489769,7.0,1195.3,193,13,19.2,-1.1,-1.1
193,1.0,False,10,p,+,-,0.217537164688,6.3,1194.6,194,14,19.2,-0.7,-1.2
194,1.0,False,10,p,+,-,0.217487096786,5.8,1194.1,195,15,19.2,-0.5,-0.9
195,,False,10,,+,-,3.00314188004,4.7,1193.0,196,16,19.2,-0.8,-1.1
196,1.0,False,10,p,+,-,0.100588798523,3.8,1192.1,197,17,19.2,-0.9,-0.9
197,1.0,False,10,p,+,-,0.484539031982,2.9,1191.2,198,18,19.2,-0.9,-1.2
198,1.0,False,10,p,+,-,0.0675330162048,2.2,1190.5,199,19,19.2,-0.7,-1.4
199,1.0,False,10,p,+,-,2.01952505112,1.3,1189.6,200,20,19.2,-0.9,-1.1
200,0.0,False,11,q,++,--,1.6701669693,119.5,1309.1,201,1,126.0,-7.0,-6.5
201,0.0,False,11,q,++,--,0.384551048279,111.0,1300.6,202,2,126.0,-5.1,-8.5
202,0.0,False,11,q,++,--,0.000591039657593,105.2,1294.8,203,3,126.0,-4.2,-5.8
203,1.0,False,11,p,++,--,0.434525966644,98.3,1287.9,204,4,126.0,-6.9,-5.6
204,0.0,False,11,q,++,--,0.167382001877,92.4,1282.0,205,5,126.0,-4.2,-5.9
205,1.0,False,11,p,++,--,2.85357809067,88.4,1278.0,206,6,126.0,-4.0,-6.4
206,1.0,False,11,p,++,--,0.250782012939,82.7,1272.3,207,7,126.0,-5.7,-6.0
207,1.0,False,11,p,++,--,0.18430185318,77.8,1267.4,208,8,126.0,-4.9,-6.5
208,1.0,False,11,p,++,--,0.217498064041,72.5,1262.1,209,9,126.0,-5.3,-6.4
209,1.0,False,11,p,++,--,0.217653036118,68.7,1258.3,210,10,126.0,-3.8,-6.6
210,1.0,False,11,p,++,--,0.334235906601,64.4,1254.0,211,11,126.0,-4.3,-7.0
211,1.0,False,11,p,++,--,0.251181840897,58.1,1247.7,212,12,126.0,-6.3,-6.2
212,1.0,False,11,p,++,--,0.18402504921,51.3,1240.9,213,13,126.0,-6.8,-7.9
213,1.0,False,11,p,++,--,0.36777806282,45.7,1235.3,214,14,126.0,-5.6,-5.0
214,1.0,False,11,p,++,--,0.0509250164032,42.4,1232.0,215,15,126.0,-3.3,-6.0
215,1.0,False,11,p,++,--,0.117686033249,37.6,1227.2,216,16,126.0,-4.8,-5.6
216,1.0,False,11,p,++,--,0.300877809525,32.9,1222.5,217,17,126.0,-4.7,-8.3
217,1.0,False,11,p,++,--,0.300945043564,27.3,1216.9,218,18,126.0,-5.6,-8.0
218,1.0,False,11,p,++,--,0.685750007629,19.7,1209.3,219,19,126.0,-7.6,-8.0
219,1.0,False,11,p,++,--,0.88488984108,14.3,1203.9,220,20,126.0,-5.4,-6.7
220,1.0,True,12,q,++,-,1.068379879,120.7,1324.6,221,1,122.0,-1.3,-1.2
221,0.0,True,12,p,++,-,0.417880058289,120.1,1324.0,222,2,122.0,-1.1,-0.6
222,1.0,True,12,q,++,-,0.451143026352,119.2,1323.1,223,3,122.0,-0.9,-1.0
223,0.0,True,12,p,++,-,0.367760181427,118.3,1322.2,224,4,122.0,-0.7,-0.9
224,1.0,True,12,q,++,-,0.150856018066,117.3,1321.2,225,5,122.0,-1.0,-1.1
225,0.0,True,12,p,++,-,0.184261083603,116.0,1319.9,226,6,122.0,-1.0,-1.3
226,0.0,True,12,p,++,-,0.284446954727,115.1,1319.0,227,7,122.0,-1.0,-0.9
227,1.0,True,12,q,++,-,0.200886964798,114.2,1318.1,228,8,122.0,-0.9,-1.1
228,0.0,True,12,p,++,-,0.134159088135,113.0,1316.9,229,9,122.0,-0.8,-1.2
229,1.0,True,12,q,++,-,0.235347986221,112.2,1316.1,230,10,122.0,-0.8,-1.2
230,1.0,True,12,q,++,-,0.36775803566,111.2,1315.1,231,11,122.0,-1.0,-1.2
231,1.0,True,12,q,++,-,0.184494972229,110.6,1314.5,232,12,122.0,-0.6,-1.1
232,1.0,True,12,q,++,-,0.0507161617279,109.8,1313.7,233,13,122.0,-0.8,-1.0
233,1.0,True,12,q,++,-,0.201164007187,108.9,1312.8,234,14,122.0,-0.9,-1.0
234,0.0,True,12,p,++,-,0.234328985214,107.7,1311.6,235,15,122.0,-0.9,-1.2
235,1.0,True,12,q,++,-,0.200929164886,106.6,1310.5,236,16,122.0,-1.1,-0.6
236,1.0,True,12,q,++,-,0.384630918503,105.7,1309.6,237,17,122.0,-0.9,-0.6
237,0.0,True,12,p,++,-,0.400983810425,105.0,1308.9,238,18,122.0,-0.8,-0.7
238,1.0,True,12,q,++,-,0.501569032669,104.2,1308.1,239,19,122.0,-0.8,-1.3
239,0.0,True,12,p,++,-,0.267715930939,102.9,1306.8,240,20,122.0,-0.8,-1.3
240,0.0,True,13,p,-,+,0.868216991425,-18.8,1288.0,241,1,-19.7,1.2,0.9
241,0.0,True,13,p,-,+,0.534476995468,-17.9,1288.9,242,2,-19.7,1.2,0.9
242,0.0,True,13,p,-,+,0.0172488689423,-17.0,1289.8,243,3,-19.7,0.9,0.9
243,0.0,True,13,p,-,+,0.384235858917,-16.1,1290.7,244,4,-19.7,1.3,0.9
244,0.0,True,13,p,-,+,0.0339407920837,-15.1,1291.7,245,5,-19.7,1.1,1.0
245,1.0,True,13,q,-,+,0.234159946442,-14.0,1292.8,246,6,-19.7,1.1,0.6
246,1.0,True,13,q,-,+,0.0506567955017,-12.7,1294.1,247,7,-19.7,1.3,0.6
247,1.0,True,13,q,-,+,0.117421865463,-11.8,1295.0,248,8,-19.7,0.9,0.9
248,1.0,True,13,q,-,+,0.218786001205,-10.5,1296.3,249,9,-19.7,1.3,0.7
249,1.0,True,13,q,-,+,0.167482852936,-9.5,1297.3,250,10,-19.7,1.0,0.4
250,1.0,True,13,q,-,+,0.117454051971,-8.5,1298.3,251,11,-19.7,1.0,0.9
251,1.0,True,13,q,-,+,0.200797080994,-7.4,1299.4,252,12,-19.7,1.1,0.6
252,1.0,True,13,q,-,+,0.167524814606,-6.2,1300.6,253,13,-19.7,1.2,0.7
253,1.0,True,13,q,-,+,0.350957155228,-5.1,1301.7,254,14,-19.7,1.1,1.0
254,1.0,True,13,q,-,+,0.301266908646,-3.7,1303.1,255,15,-19.7,1.4,1.0
255,1.0,True,13,q,-,+,0.201036930084,-2.7,1304.1,256,16,-19.7,1.0,0.9
256,1.0,True,13,q,-,+,0.151016950607,-1.9,1304.9,257,17,-19.7,0.8,0.8
257,1.0,True,13,q,-,+,0.184408903122,-0.4,1306.4,258,18,-19.7,1.5,1.0
258,1.0,True,13,q,-,+,0.000695943832397,0.8,1307.6,259,19,-19.7,1.2,0.8
259,1.0,True,13,q,-,+,0.117511034012,1.7,1308.5,260,20,-19.7,0.9,1.0
260,1.0,True,14,q,+,--,1.38554215431,14.0,1322.5,261,1,19.8,-5.8,-6.3
261,1.0,True,14,q,+,--,0.28430891037,8.4,1316.9,262,2,19.8,-5.6,-7.8
262,1.0,True,14,q,+,--,0.0341100692749,4.7,1313.2,263,3,19.8,-3.7,-6.9
263,1.0,True,14,q,+,--,0.167464017868,-0.5,1308.0,264,4,19.8,-5.2,-8.7
264,1.0,True,14,q,+,--,0.134158849716,-6.0,1302.5,265,5,19.8,-5.5,-5.8
265,1.0,True,14,q,+,--,0.267905950546,-11.2,1297.3,266,6,19.8,-5.2,-9.1
266,1.0,True,14,q,+,--,0.301135063171,-17.3,1291.2,267,7,19.8,-6.1,-4.9
267,0.0,True,14,p,+,--,0.0674369335175,-26.8,1281.7,268,8,19.8,-3.2,-9.5
268,1.0,True,14,q,+,--,0.0839350223541,-29.8,1278.7,269,9,19.8,-3.0,-8.1
269,1.0,True,14,q,+,--,0.38452911377,-35.2,1273.3,270,10,19.8,-5.4,-8.2
270,1.0,True,14,q,+,--,0.217565059662,-40.8,1267.7,271,11,19.8,-5.6,-8.9
271,1.0,True,14,q,+,--,0.000693082809448,-46.8,1261.7,272,12,19.8,-6.0,-6.3
272,1.0,True,14,q,+,--,0.234174013138,-51.0,1257.5,273,13,19.8,-4.2,-4.7
273,1.0,True,14,q,+,--,0.284559011459,-55.1,1253.4,274,14,19.8,-4.1,-7.0
274,1.0,True,14,q,+,--,0.384261131287,-60.3,1248.2,275,15,19.8,-5.2,-5.2
275,1.0,True,14,q,+,--,0.251064062119,-65.2,1243.3,276,16,19.8,-4.9,-6.0
276,1.0,True,14,q,+,--,0.351155996323,-68.9,1239.6,277,17,19.8,-3.7,-8.1
277,1.0,True,14,q,+,--,0.0507681369781,-73.1,1235.4,278,18,19.8,-4.2,-6.8
278,1.0,True,14,q,+,--,0.250990867615,-78.1,1230.4,279,19,19.8,-5.0,-6.4
279,1.0,True,14,q,+,--,0.217849969864,-81.8,1226.7,280,20,19.8,-3.7,-4.2
280,1.0,False,15,p,+,+,0.936125040054,20.3,1247.0,281,1,19.3,1.0,0.8
281,1.0,False,15,p,+,+,0.501246929169,21.2,1247.9,282,2,19.3,0.9,0.9
282,1.0,False,15,p,+,+,0.402040958405,22.0,1248.7,283,3,19.3,0.8,0.7
283,1.0,False,15,p,+,+,0.31784081459,23.1,1249.8,284,4,19.3,1.1,0.7
284,1.0,False,15,p,+,+,0.167641878128,24.2,1250.9,285,5,19.3,1.1,1.0
285,1.0,False,15,p,+,+,0.100779056549,25.3,1252.0,286,6,19.3,1.1,1.0
286,1.0,False,15,p,+,+,0.117470979691,26.3,1253.0,287,7,19.3,1.0,0.6
287,1.0,False,15,p,+,+,0.167418956757,27.5,1254.2,288,8,19.3,1.2,1.1
288,1.0,False,15,p,+,+,0.684724807739,28.4,1255.1,289,9,19.3,0.9,0.9
289,1.0,False,15,p,+,+,0.26774096489,29.9,1256.6,290,10,19.3,1.5,0.7
290,1.0,False,15,p,+,+,0.28429889679,30.5,1257.2,291,11,19.3,0.6,0.9
291,1.0,False,15,p,+,+,0.267334938049,31.6,1258.3,292,12,19.3,1.1,0.9
292,1.0,False,15,p,+,+,0.43455696106,32.4,1259.1,293,13,19.3,0.8,0.9
293,0.0,False,15,q,+,+,0.184218883514,33.3,1260.0,294,14,19.3,1.2,0.9
294,1.0,False,15,p,+,+,0.0842020511627,34.4,1261.1,295,15,19.3,1.1,1.1
295,1.0,False,15,p,+,+,0.367803096771,35.3,1262.0,296,16,19.3,0.9,0.8
296,1.0,False,15,p,+,+,0.267627954483,36.3,1263.0,297,17,19.3,1.0,0.7
297,1.0,False,15,p,+,+,0.134151935577,37.3,1264.0,298,18,19.3,1.0,1.2
298,1.0,False,15,p,+,+,0.501269817352,38.4,1265.1,299,19,19.3,1.1,0.8
299,1.0,False,15,p,+,+,0.334455013275,39.3,1266.0,300,20,19.3,0.9,0.6
300,1.0,True,16,q,--,-,1.13534808159,-114.9,1151.1,301,1,-114.0,-0.9,-1.4
301,1.0,True,16,q,--,-,0.284348011017,-116.0,1150.0,302,2,-114.0,-1.1,-1.0
302,1.0,True,16,q,--,-,0.117600917816,-116.9,1149.1,303,3,-114.0,-0.9,-1.2
303,1.0,True,16,q,--,-,0.267572164536,-117.9,1148.1,304,4,-114.0,-1.0,-1.0
304,1.0,True,16,q,--,-,0.234457969666,-118.7,1147.3,305,5,-114.0,-0.8,-1.1
305,1.0,True,16,q,--,-,0.334271907806,-119.3,1146.7,306,6,-114.0,-0.6,-0.9
306,1.0,True,16,q,--,-,0.0507299900055,-120.4,1145.6,307,7,-114.0,-1.1,-1.1
307,1.0,True,16,q,--,-,0.401070833206,-121.2,1144.8,308,8,-114.0,-0.8,-0.9
308,1.0,True,16,q,--,-,0.434484958649,-122.1,1143.9,309,9,-114.0,-0.9,-1.1
309,1.0,True,16,q,--,-,1.55258488655,-123.3,1142.7,310,10,-114.0,-1.2,-0.8
310,1.0,True,16,q,--,-,0.317840099335,-124.3,1141.7,311,11,-114.0,-1.0,-1.3
311,1.0,True,16,q,--,-,0.167410850525,-125.3,1140.7,312,12,-114.0,-1.0,-0.8
312,1.0,True,16,q,--,-,0.367957830429,-126.3,1139.7,313,13,-114.0,-1.0,-1.1
313,1.0,True,16,q,--,-,0.134016036987,-127.3,1138.7,314,14,-114.0,-1.0,-1.2
314,1.0,True,16,q,--,-,0.818114042282,-128.0,1138.0,315,15,-114.0,-0.7,-1.0
315,1.0,True,16,q,--,-,0.350706100464,-128.7,1137.3,316,16,-114.0,-0.7,-1.3
316,1.0,True,16,q,--,-,0.251134872437,-129.2,1136.8,317,17,-114.0,-0.5,-1.0
317,1.0,True,16,q,--,-,0.267771959305,-129.8,1136.2,318,18,-114.0,-0.6,-1.0
318,1.0,True,16,q,--,-,0.267650842667,-130.6,1135.4,319,19,-114.0,-0.8,-0.7
319,1.0,True,16,q,--,-,0.25092291832,0.0,1026.0,320,20,-114.0,-1.0,-1.2
